acc_x,acc_y,acc_z,gyro_x,gyro_y,gyro_z,time
0.192,-0.055,-1.160,-1.496,-1.985,-0.122,0
0.197,-0.051,-1.154,-1.664,-2.366,-0.137,4051
0.197,-0.055,-1.164,-1.786,-2.382,-0.153,8067
0.190,-0.055,-1.170,-1.893,-2.489,-0.122,12078
0.188,-0.051,-1.164,-1.878,-2.626,0.107,16089
0.186,-0.050,-1.167,-1.863,-2.534,0.153,20100
0.193,-0.050,-1.167,-1.710,-2.626,0.565,24111
0.192,-0.052,-1.166,-1.634,-2.382,0.809,28122
0.186,-0.054,-1.164,-1.450,-2.214,0.855,32133
0.179,-0.052,-1.167,-1.069,-1.771,1.023,36145
0.186,-0.052,-1.157,-0.992,-1.588,1.099,40155
0.178,-0.062,-1.162,-1.252,-1.328,1.099,44166
0.184,-0.063,-1.169,-1.313,-0.992,0.977,48177
0.179,-0.059,-1.158,-1.374,-0.550,1.008,52188
0.180,-0.062,-1.164,-1.542,-0.107,0.870,56199
0.180,-0.069,-1.171,-1.771,-0.061,0.809,60210
0.177,-0.067,-1.167,-2.122,0.031,0.809,64221
0.183,-0.071,-1.169,-2.427,0.275,0.702,68232
0.182,-0.066,-1.169,-2.824,0.214,0.779,72243
0.176,-0.066,-1.167,-3.267,0.427,0.626,76254
0.177,-0.065,-1.164,-3.847,0.656,0.595,80266
0.179,-0.065,-1.158,-4.000,1.023,0.519,84277
0.175,-0.069,-1.157,-4.351,1.099,0.290,88288
0.169,-0.065,-1.155,-4.427,1.298,0.107,92300
0.179,-0.065,-1.150,-4.641,1.588,0.107,96310
0.176,-0.064,-1.150,-4.687,1.939,0.260,100321
0.177,-0.055,-1.144,-4.473,2.305,0.244,104333
0.178,-0.058,-1.148,-4.687,2.290,0.168,108344
0.182,-0.053,-1.142,-4.443,2.763,0.305,112355
0.182,-0.058,-1.143,-4.260,2.794,0.397,116366
0.182,-0.052,-1.144,-4.046,2.824,0.595,120377
0.176,-0.057,-1.142,-3.817,3.023,0.550,124388
0.181,-0.062,-1.153,-3.695,2.947,0.534,128399
0.175,-0.060,-1.141,-3.649,2.931,0.763,132410
0.182,-0.059,-1.146,-3.740,2.824,0.687,136421
0.185,-0.062,-1.148,-3.573,2.885,0.779,140432
0.183,-0.062,-1.138,-3.450,2.718,1.038,144443
0.189,-0.059,-1.141,-3.237,2.443,1.069,148454
0.188,-0.061,-1.143,-3.252,2.412,0.916,152465
0.182,-0.061,-1.149,-3.130,2.427,0.916,156477
0.183,-0.060,-1.140,-3.206,2.244,0.733,160488
0.185,-0.063,-1.148,-2.992,2.015,0.595,164499
0.184,-0.061,-1.145,-3.191,1.832,0.580,168510
0.184,-0.066,-1.146,-3.359,1.786,0.611,172521
0.191,-0.059,-1.142,-3.435,1.863,0.519,176532
0.187,-0.065,-1.135,-3.542,1.832,0.489,180543
0.191,-0.064,-1.138,-3.832,1.802,0.351,184555
0.185,-0.054,-1.147,-3.939,1.893,0.412,188565
0.183,-0.062,-1.140,-4.076,1.771,0.290,192576
0.187,-0.064,-1.136,-4.061,1.939,0.275,196587
0.188,-0.062,-1.141,-4.137,1.649,0.107,200598
0.189,-0.056,-1.142,-4.244,1.603,0.076,204609
0.189,-0.061,-1.140,-4.122,1.588,0.046,208620
0.190,-0.056,-1.140,-3.924,1.664,0.137,212640
0.189,-0.060,-1.138,-3.908,1.481,0.290,216652
0.191,-0.054,-1.133,-3.618,1.496,0.351,220662
0.198,-0.051,-1.131,-3.221,1.313,0.351,224673
0.201,-0.048,-1.130,-2.763,0.977,0.458,228684
0.193,-0.047,-1.138,-2.305,0.977,0.458,232702
0.200,-0.054,-1.137,-2.000,0.733,0.763,236713
0.194,-0.061,-1.139,-1.710,0.824,0.794,240724
0.188,-0.056,-1.133,-1.603,0.412,0.733,244735
0.200,-0.061,-1.138,-1.435,0.366,0.611,248746
0.192,-0.052,-1.142,-1.344,0.397,0.397,252757
0.198,-0.058,-1.148,-1.511,0.229,0.244,256768
0.203,-0.059,-1.143,-1.527,0.076,0.290,260779
0.197,-0.059,-1.141,-1.786,0.107,0.290,264790
0.196,-0.071,-1.133,-1.969,-0.031,0.275,268797
0.197,-0.059,-1.138,-2.214,0.046,0.489,272808
0.196,-0.058,-1.139,-2.137,-0.107,0.641,276819
0.193,-0.060,-1.128,-1.969,0.092,0.763,280830
0.195,-0.059,-1.133,-1.954,0.321,0.748,284841
0.195,-0.058,-1.131,-2.015,0.595,0.550,288852
0.193,-0.058,-1.132,-1.939,0.855,0.351,292863
0.194,-0.055,-1.137,-1.756,0.779,0.015,296874
0.199,-0.055,-1.134,-1.481,1.008,-0.214,300886
0.195,-0.053,-1.135,-1.160,1.115,-0.153,304897
0.190,-0.056,-1.138,-1.206,0.947,0.122,308908
0.201,-0.062,-1.149,-1.206,0.840,0.153,312923
0.199,-0.063,-1.154,-1.252,0.809,0.214,316934
0.204,-0.071,-1.143,-1.649,0.534,0.214,320945
0.202,-0.065,-1.153,-1.756,0.534,0.168,324956
0.200,-0.063,-1.150,-2.000,0.260,0.137,328967
0.205,-0.060,-1.159,-2.305,0.092,-0.061,332986
0.200,-0.064,-1.155,-2.168,-0.122,-0.168,336997
0.201,-0.067,-1.150,-2.489,0.137,-0.153,341008
0.201,-0.061,-1.150,-2.534,0.275,-0.122,345020
0.199,-0.058,-1.146,-2.412,0.427,-0.305,349031
0.195,-0.062,-1.142,-2.366,0.611,-0.763,353052
0.209,-0.053,-1.164,-2.275,0.763,-0.855,357063
0.204,-0.057,-1.149,-2.290,0.901,-0.962,361074
0.197,-0.061,-1.150,-1.985,0.947,-0.809,365085
0.209,-0.062,-1.154,-2.031,0.840,-0.855,369096
0.206,-0.066,-1.138,-2.092,0.794,-0.931,373108
0.199,-0.057,-1.150,-2.076,0.885,-1.008,377119
0.198,-0.062,-1.152,-1.924,0.489,-1.023,381131
0.209,-0.053,-1.156,-2.137,0.504,-0.885,385142
0.202,-0.062,-1.149,-2.244,0.366,-1.038,389153
0.200,-0.062,-1.167,-2.168,0.321,-1.023,393163
0.199,-0.060,-1.152,-2.626,0.611,-1.130,397174
0.200,-0.062,-1.159,-2.855,0.611,-1.252,401185
0.204,-0.061,-1.156,-2.672,0.656,-1.359,405196
0.199,-0.067,-1.148,-2.855,0.748,-1.588,409207
0.204,-0.064,-1.151,-3.053,0.779,-1.542,413228
0.200,-0.058,-1.156,-3.023,0.809,-1.603,417239
0.201,-0.057,-1.144,-3.023,0.794,-1.863,421251
0.203,-0.053,-1.156,-2.870,0.504,-1.634,425261
0.201,-0.052,-1.158,-2.870,0.489,-1.786,429272
0.196,-0.056,-1.152,-2.916,0.397,-1.863,433293
0.201,-0.062,-1.155,-2.947,0.107,-2.000,437304
0.197,-0.059,-1.161,-2.947,-0.275,-2.153,441315
0.194,-0.068,-1.149,-3.099,-0.153,-2.153,445326
0.193,-0.066,-1.161,-3.237,-0.260,-2.351,449337
0.196,-0.067,-1.151,-3.405,-0.198,-2.473,453349
0.199,-0.066,-1.152,-3.603,-0.168,-2.427,457360
0.194,-0.059,-1.154,-3.496,-0.061,-2.550,461372
0.182,-0.064,-1.153,-3.679,0.137,-2.565,465383
0.192,-0.068,-1.151,-3.649,0.366,-2.550,469394
0.186,-0.066,-1.148,-3.481,0.672,-2.641,473405
0.193,-0.066,-1.164,-3.740,0.901,-2.366,477416
0.190,-0.060,-1.157,-3.649,1.252,-2.260,481427
0.185,-0.065,-1.155,-3.573,1.435,-2.122,485439
0.184,-0.064,-1.150,-3.450,1.802,-2.015,489450
0.190,-0.066,-1.155,-3.496,1.756,-1.939,493461
0.190,-0.066,-1.162,-3.481,1.756,-1.802,497472
0.190,-0.072,-1.152,-3.588,1.664,-2.061,501484
0.190,-0.070,-1.146,-3.832,1.832,-2.031,505495
0.194,-0.065,-1.143,-4.031,1.511,-1.954,509506
0.195,-0.071,-1.148,-4.214,1.221,-2.015,513517
0.192,-0.066,-1.157,-4.122,0.977,-1.908,517527
0.189,-0.074,-1.141,-4.244,0.977,-2.107,521538
0.187,-0.062,-1.148,-4.076,0.824,-2.107,525549
0.188,-0.070,-1.153,-3.771,0.763,-1.802,529560
0.182,-0.062,-1.151,-3.649,0.611,-1.939,533570
0.189,-0.069,-1.146,-3.557,0.992,-1.710,537581
0.178,-0.073,-1.148,-3.389,1.221,-1.618,541592
0.179,-0.078,-1.151,-3.405,1.298,-1.725,545603
0.170,-0.084,-1.141,-3.344,1.679,-1.710,549615
0.171,-0.092,-1.144,-3.573,1.863,-1.664,553634
0.170,-0.092,-1.148,-3.725,2.305,-1.664,557646
0.167,-0.092,-1.149,-4.015,2.763,-1.634,561657
0.165,-0.100,-1.146,-4.107,3.221,-1.359,565668
0.165,-0.100,-1.161,-4.229,3.786,-1.511,569679
0.160,-0.102,-1.161,-4.443,4.351,-1.481,573700
0.163,-0.110,-1.158,-4.473,4.870,-1.420,577711
0.162,-0.119,-1.164,-4.748,5.389,-1.313,581722
0.157,-0.127,-1.165,-5.008,5.893,-1.221,585733
0.158,-0.135,-1.162,-5.130,6.519,-1.282,589744
0.155,-0.146,-1.163,-5.618,7.267,-1.359,593754
0.157,-0.149,-1.165,-5.863,7.771,-1.237,597765
0.160,-0.162,-1.167,-6.336,8.336,-1.099,601776
0.164,-0.168,-1.169,-6.718,8.473,-1.267,605788
0.167,-0.179,-1.168,-7.038,8.687,-1.237,609799
0.169,-0.190,-1.166,-7.420,8.763,-1.252,613809
0.182,-0.210,-1.169,-7.679,8.611,-1.634,617819
0.186,-0.219,-1.168,-8.244,8.229,-2.046,621830
0.187,-0.244,-1.171,-8.489,7.756,-2.611,625841
0.195,-0.263,-1.175,-8.931,6.931,-3.069,629852
0.198,-0.283,-1.168,-9.527,6.198,-3.710,633872
0.212,-0.313,-1.175,-10.168,5.145,-4.382,637885
0.216,-0.337,-1.174,-11.160,4.351,-5.084,641896
0.227,-0.353,-1.171,-11.710,1.924,-5.710,645907
0.236,-0.373,-1.168,-12.977,0.489,-6.382,649918
0.241,-0.396,-1.176,-13.771,-1.725,-6.916,653929
0.252,-0.420,-1.168,-14.626,-4.382,-7.679,657940
0.262,-0.437,-1.164,-15.634,-7.557,-8.382,661951
0.277,-0.453,-1.170,-16.565,-11.176,-9.542,665962
0.284,-0.471,-1.156,-17.344,-14.824,-10.305,669973
0.294,-0.491,-1.163,-18.305,-18.641,-10.977,673984
0.289,-0.495,-1.162,-19.344,-22.595,-11.832,677996
0.299,-0.520,-1.152,-20.733,-26.290,-12.962,682008
0.310,-0.534,-1.145,-22.809,-29.786,-14.473,686018
0.300,-0.546,-1.143,-24.901,-32.916,-15.893,690029
0.289,-0.562,-1.147,-26.992,-35.649,-17.786,694041
0.274,-0.566,-1.144,-28.443,-37.817,-19.542,698052
0.244,-0.569,-1.132,-29.771,-38.718,-21.496,702063
0.212,-0.574,-1.135,-31.099,-39.023,-23.023,706074
0.173,-0.574,-1.120,-31.695,-38.076,-24.931,710085
0.171,-0.583,-1.113,-32.061,-36.947,-26.672,714096
0.149,-0.594,-1.122,-32.443,-34.824,-28.076,718104
0.130,-0.600,-1.116,-32.809,-32.565,-28.885,722115
0.128,-0.602,-1.122,-32.977,-30.000,-28.977,726126
0.130,-0.603,-1.119,-32.901,-27.802,-29.008,730137
0.148,-0.609,-1.127,-32.931,-26.397,-28.519,734148
0.164,-0.607,-1.127,-32.962,-25.985,-28.000,738155
0.181,-0.606,-1.135,-32.947,-26.046,-28.122,742166
0.179,-0.602,-1.139,-32.351,-26.198,-28.595,746177
0.177,-0.588,-1.149,-31.802,-27.038,-29.756,750188
0.185,-0.574,-1.157,-31.573,-28.626,-30.977,754199
0.188,-0.569,-1.162,-31.573,-30.397,-32.550,758211
0.169,-0.559,-1.162,-31.924,-31.817,-33.969,762222
0.154,-0.547,-1.172,-31.847,-33.496,-34.885,766234
0.144,-0.549,-1.176,-31.603,-34.565,-35.466,770245
0.116,-0.540,-1.179,-31.145,-35.237,-36.000,774256
0.122,-0.532,-1.182,-31.649,-35.649,-35.893,778268
0.114,-0.520,-1.181,-31.542,-36.046,-35.969,782279
0.106,-0.508,-1.187,-32.137,-35.878,-35.603,786290
0.087,-0.488,-1.184,-33.069,-35.573,-35.160,790301
0.068,-0.465,-1.181,-33.405,-34.916,-34.183,794312
0.059,-0.423,-1.178,-32.962,-33.221,-32.947,798324
0.048,-0.400,-1.172,-32.015,-30.580,-31.084,802334
0.036,-0.363,-1.168,-30.962,-26.931,-29.420,806345
0.022,-0.318,-1.153,-29.618,-23.008,-27.282,810356
0.014,-0.286,-1.137,-28.427,-18.595,-25.878,814367
0.012,-0.249,-1.141,-27.115,-14.321,-24.885,818378
0.000,-0.223,-1.125,-25.527,-9.298,-24.611,822389
-0.001,-0.186,-1.117,-23.618,-4.748,-24.855,826400
-0.002,-0.154,-1.108,-21.130,-0.229,-25.160,830411
0.012,-0.115,-1.111,-18.412,3.542,-25.924,834422
0.016,-0.084,-1.108,-16.137,6.489,-25.710,838432
0.032,-0.059,-1.102,-13.710,9.221,-25.710,842443
0.040,-0.032,-1.097,-11.344,11.160,-25.389,846454
0.051,-0.010,-1.096,-9.130,12.366,-25.435,850465
0.069,0.004,-1.109,-6.947,12.611,-25.740,854476
0.092,0.014,-1.109,-5.405,11.954,-26.107,858487
0.109,0.027,-1.118,-3.664,10.580,-25.908,862498
0.127,0.031,-1.118,-2.489,8.427,-25.481,866509
0.157,0.045,-1.126,-1.695,5.924,-24.427,870520
0.161,0.061,-1.121,-1.771,2.916,-23.008,874531
0.149,0.079,-1.123,-1.924,0.855,-21.221,878543
0.133,0.099,-1.114,-1.710,-0.855,-19.573,882553
0.110,0.116,-1.098,-1.588,-1.954,-18.214,886564
0.097,0.142,-1.103,-1.542,-2.000,-17.221,890575
0.079,0.159,-1.082,-1.115,-1.435,-16.305,894586
0.065,0.172,-1.087,-0.611,0.031,-15.298,898597
0.054,0.188,-1.084,-0.061,2.046,-13.573,902608
0.064,0.187,-1.071,0.290,3.985,-11.893,906619
0.057,0.196,-1.073,0.824,6.183,-10.229,910630
0.072,0.217,-1.061,1.542,7.969,-8.550,914641
0.090,0.231,-1.058,1.725,10.061,-7.420,918652
0.083,0.263,-1.053,2.244,12.168,-6.565,922672
0.064,0.295,-1.056,3.832,14.473,-6.351,926683
0.070,0.326,-1.062,5.817,16.290,-6.885,930694
0.077,0.341,-1.070,7.557,18.092,-7.450,934705
0.079,0.351,-1.073,9.053,19.481,-7.221,938717
0.079,0.366,-1.060,9.969,21.145,-6.656,942727
0.095,0.357,-1.090,12.550,20.916,-6.214,946738
0.119,0.342,-1.098,14.718,20.000,-6.092,950749
0.128,0.340,-1.108,16.351,19.115,-4.794,954760
0.134,0.349,-1.124,17.710,18.687,-2.656,958773
0.135,0.357,-1.131,18.855,18.000,-1.053,962784
0.132,0.369,-1.130,19.450,16.748,0.229,966796
0.127,0.349,-1.133,19.863,15.664,1.344,970807
0.121,0.348,-1.123,20.229,15.160,2.168,974818
0.124,0.342,-1.128,20.015,15.267,2.779,978829
0.121,0.341,-1.126,19.160,15.573,3.313,982840
0.118,0.335,-1.117,17.725,16.382,4.244,986851
0.109,0.333,-1.103,16.244,17.389,5.786,990862
0.110,0.329,-1.093,14.336,18.779,7.725,994873
0.104,0.334,-1.079,12.412,20.595,9.557,998885
0.100,0.346,-1.060,10.977,22.947,10.916,1002897
0.087,0.367,-1.056,10.290,25.496,12.076,1006908
0.092,0.384,-1.043,9.969,28.427,12.351,1010919
0.089,0.389,-1.038,10.137,30.809,12.351,1014930
0.109,0.395,-1.044,10.626,33.206,11.969,1018941
0.116,0.396,-1.033,10.748,35.099,11.618,1022961
0.139,0.401,-1.023,11.573,36.046,11.374,1026973
0.159,0.399,-1.042,12.656,35.908,11.252,1030984
0.180,0.391,-1.058,14.137,35.298,10.809,1034995
0.181,0.420,-1.070,16.305,34.290,10.992,1039006
0.195,0.429,-1.073,18.031,33.649,11.008,1043026
0.195,0.422,-1.081,19.786,32.092,10.947,1047038
0.187,0.406,-1.091,20.656,30.397,10.656,1051048
0.188,0.396,-1.087,21.573,28.687,10.718,1055059
0.192,0.393,-1.090,22.031,27.802,10.947,1059070
0.187,0.386,-1.108,22.000,27.069,11.359,1063088
0.181,0.393,-1.101,21.771,26.855,11.649,1067099
0.173,0.387,-1.115,21.740,26.779,11.649,1071110
0.161,0.388,-1.112,21.282,26.809,11.130,1075121
0.155,0.379,-1.119,20.962,27.099,10.763,1079132
0.147,0.382,-1.126,21.389,27.649,10.153,1083142
0.144,0.388,-1.154,22.412,28.092,9.695,1087154
0.153,0.381,-1.168,23.221,28.489,9.267,1091164
0.160,0.363,-1.180,23.527,28.489,9.084,1095175
0.166,0.340,-1.174,23.725,28.260,9.130,1099187
0.164,0.329,-1.183,23.679,27.756,9.145,1103207
0.165,0.300,-1.187,23.115,26.916,9.221,1107218
0.170,0.276,-1.201,22.229,26.046,9.557,1111229
0.171,0.258,-1.211,21.069,25.634,10.153,1115240
0.181,0.245,-1.205,19.771,25.389,10.748,1119251
0.185,0.226,-1.221,18.840,25.130,11.145,1123272
0.191,0.219,-1.222,17.389,24.519,11.878,1127283
0.203,0.200,-1.224,15.756,23.847,12.595,1131294
0.209,0.190,-1.229,14.000,23.191,13.053,1135306
0.219,0.184,-1.214,12.489,22.321,13.206,1139317
0.221,0.187,-1.239,10.992,21.374,13.191,1143335
0.231,0.182,-1.230,9.740,20.550,12.733,1147345
0.231,0.182,-1.231,8.687,19.786,11.954,1151356
0.226,0.186,-1.234,7.634,19.191,11.023,1155367
0.222,0.178,-1.229,6.855,18.779,10.229,1159378
0.230,0.161,-1.231,5.756,18.092,9.298,1163389
0.239,0.150,-1.223,4.611,17.206,8.473,1167400
0.252,0.135,-1.228,3.664,16.626,7.939,1171411
0.253,0.128,-1.225,2.153,15.740,7.511,1175422
0.250,0.119,-1.224,1.099,14.947,7.069,1179433
0.246,0.115,-1.230,0.107,14.366,6.137,1183444
0.246,0.113,-1.228,-0.748,13.420,5.130,1187456
0.241,0.090,-1.223,-1.725,12.611,3.954,1191466
0.239,0.087,-1.226,-2.412,12.092,3.237,1195478
0.232,0.080,-1.208,-3.252,11.496,2.397,1199489
0.233,0.068,-1.216,-3.908,10.992,1.664,1203499
0.226,0.060,-1.216,-4.901,10.687,0.870,1207510
0.220,0.052,-1.207,-5.771,10.534,-0.260,1211521
0.216,0.049,-1.200,-6.366,10.229,-1.298,1215532
0.218,0.045,-1.197,-6.885,10.168,-2.336,1219543
0.218,0.042,-1.201,-7.298,10.046,-3.206,1223554
0.220,0.042,-1.197,-7.496,10.137,-3.786,1227566
0.214,0.033,-1.212,-7.527,9.817,-4.153,1231577
0.211,0.040,-1.208,-7.374,9.908,-4.198,1235589
0.213,0.042,-1.213,-7.084,9.985,-4.198,1239600
0.211,0.029,-1.211,-6.672,9.313,-4.061,1243620
0.214,0.020,-1.213,-6.092,9.069,-3.878,1247631
0.222,0.017,-1.210,-5.557,8.519,-3.267,1251642
0.223,0.010,-1.212,-5.237,7.817,-2.473,1255653
0.227,0.006,-1.218,-5.176,7.053,-1.710,1259664
0.236,0.002,-1.225,-5.481,6.168,-0.855,1263685
0.238,-0.012,-1.211,-5.802,5.023,-0.504,1267696
0.238,-0.023,-1.209,-6.641,3.954,-0.641,1271708
0.241,-0.024,-1.211,-7.344,2.748,-0.840,1275719
0.239,-0.031,-1.204,-8.534,1.542,-1.191,1279730
0.249,-0.037,-1.212,-9.313,0.229,-1.588,1283742
0.259,-0.037,-1.199,-10.198,-1.466,-1.634,1287752
0.272,-0.040,-1.199,-10.885,-2.412,-1.389,1291763
0.273,-0.051,-1.205,-11.740,-3.557,-1.099,1295774
0.264,-0.044,-1.191,-12.260,-4.611,-0.611,1299785
0.263,-0.044,-1.189,-12.305,-5.542,-0.534,1303798
0.255,-0.043,-1.189,-12.183,-6.046,-0.656,1307809
0.241,-0.031,-1.197,-11.878,-5.985,-1.176,1311819
0.233,-0.028,-1.189,-11.237,-5.420,-1.786,1315830
0.226,-0.030,-1.180,-10.397,-4.702,-2.382,1319841
0.210,-0.032,-1.182,-9.405,-3.359,-2.763,1323862
0.211,-0.038,-1.188,-8.672,-1.878,-3.008,1327873
0.205,-0.035,-1.180,-8.122,-0.458,-3.099,1331885
0.204,-0.037,-1.186,-7.634,0.962,-2.977,1335895
0.207,-0.045,-1.175,-7.389,2.397,-3.053,1339915
0.212,-0.043,-1.181,-7.160,3.740,-2.687,1343926
0.218,-0.052,-1.181,-7.206,4.702,-2.305,1347937
0.223,-0.056,-1.172,-7.588,5.298,-2.015,1351948
0.229,-0.051,-1.173,-7.954,5.420,-1.817,1355959
0.233,-0.055,-1.169,-8.595,5.053,-1.771,1359970
0.235,-0.055,-1.152,-9.267,4.763,-1.802,1363981
0.239,-0.047,-1.167,-9.954,3.969,-1.954,1367993
0.243,-0.044,-1.159,-10.321,3.206,-1.832,1372004
0.244,-0.043,-1.155,-10.550,2.519,-1.863,1376015
0.244,-0.034,-1.144,-10.901,1.313,-1.710,1380026
0.236,-0.028,-1.150,-11.038,0.443,-1.817,1384037
0.231,-0.019,-1.144,-10.809,-0.351,-1.924,1388048
0.230,-0.017,-1.146,-10.534,-1.191,-1.893,1392059
0.229,-0.018,-1.154,-10.061,-1.756,-1.756,1396070
0.233,-0.011,-1.146,-9.466,-2.397,-1.145,1400082
0.229,-0.021,-1.137,-9.130,-2.779,-0.214,1404093
0.233,-0.017,-1.146,-8.779,-3.069,0.489,1408104
0.232,-0.018,-1.131,-8.656,-3.527,1.420,1412116
0.230,-0.019,-1.135,-8.672,-3.954,1.817,1416126
0.234,-0.016,-1.143,-8.550,-4.046,2.061,1420137
0.227,-0.013,-1.133,-8.641,-3.725,1.908,1424148
0.215,-0.009,-1.128,-8.733,-3.450,1.634,1428155
0.216,-0.005,-1.125,-8.397,-3.023,0.977,1432166
0.212,-0.006,-1.135,-8.305,-2.336,0.718,1436177
0.208,-0.009,-1.120,-7.786,-1.634,0.534,1440188
0.215,-0.003,-1.115,-7.710,-0.672,0.382,1444199
0.209,-0.000,-1.122,-7.053,0.198,0.672,1448211
0.205,0.004,-1.111,-6.351,0.763,0.504,1452222
0.197,-0.000,-1.110,-5.740,1.817,0.168,1456234
0.212,0.008,-1.116,-5.267,2.198,-0.214,1460245
0.211,0.000,-1.124,-4.763,2.733,-0.977,1464256
0.207,-0.004,-1.122,-4.565,2.885,-1.298,1468268
0.220,-0.000,-1.120,-4.382,2.779,-1.924,1472279
0.226,-0.011,-1.124,-4.779,2.290,-1.924,1476290
0.226,-0.010,-1.131,-5.298,1.634,-1.969,1480301
0.225,-0.018,-1.123,-5.985,0.687,-1.954,1484312
0.228,-0.007,-1.122,-6.412,0.076,-1.847,1488324
0.230,-0.012,-1.126,-6.916,-1.008,-1.542,1492334
0.227,-0.009,-1.113,-7.496,-1.893,-1.206,1496345
0.221,-0.003,-1.110,-7.817,-2.748,-0.885,1500356
0.211,0.003,-1.117,-7.817,-3.374,-0.351,1504367
0.204,0.005,-1.111,-7.634,-4.000,0.229,1508378
0.207,0.009,-1.108,-7.298,-4.443,0.733,1512389
0.203,0.019,-1.102,-6.595,-4.748,1.053,1516400
0.184,0.018,-1.099,-5.679,-4.687,1.939,1520411
0.190,0.026,-1.108,-4.550,-4.443,2.550,1524422
0.192,0.021,-1.114,-3.359,-4.244,3.313,1528432
0.202,0.013,-1.119,-2.321,-4.397,4.015,1532443
0.204,0.010,-1.123,-1.084,-4.275,4.580,1536454
0.214,0.004,-1.119,-0.275,-4.458,5.145,1540465
0.213,-0.006,-1.123,0.275,-4.687,5.817,1544476
0.220,-0.011,-1.123,0.290,-4.885,6.214,1548487
0.223,-0.017,-1.120,0.443,-4.962,6.397,1552498
0.225,-0.017,-1.138,0.382,-5.191,6.183,1556509
0.239,-0.024,-1.136,0.168,-5.252,5.924,1560520
0.243,-0.026,-1.129,-0.031,-5.084,5.756,1564531
0.250,-0.030,-1.140,-0.290,-4.977,5.573,1568543
0.250,-0.033,-1.138,-1.023,-4.763,5.374,1572553
0.259,-0.035,-1.144,-1.450,-4.443,5.115,1576564
0.258,-0.037,-1.133,-2.061,-4.260,4.916,1580575
0.257,-0.041,-1.145,-2.672,-3.496,4.321,1584586
0.274,-0.037,-1.145,-3.282,-3.282,3.267,1588597
0.260,-0.036,-1.150,-3.878,-3.008,2.427,1592608
0.263,-0.034,-1.149,-4.061,-2.580,1.740,1596619
0.256,-0.027,-1.134,-4.336,-2.092,1.221,1600630
0.267,-0.032,-1.147,-4.565,-1.802,0.656,1604641
0.257,-0.033,-1.149,-4.748,-1.496,0.443,1608652
0.257,-0.027,-1.142,-4.519,-1.191,0.107,1612672
0.249,-0.017,-1.151,-4.504,-0.855,-0.061,1616683
0.244,-0.021,-1.156,-4.275,-0.137,-0.351,1620694
0.233,-0.027,-1.142,-3.878,0.534,-0.656,1624705
0.228,-0.014,-1.139,-3.573,1.099,-0.641,1628717
0.227,-0.015,-1.142,-3.023,1.893,-0.656,1632727
0.223,-0.010,-1.136,-2.443,2.580,-0.427,1636738
0.216,-0.017,-1.148,-1.954,3.023,-0.260,1640749
0.226,-0.015,-1.142,-1.481,3.740,-0.107,1644760
0.220,-0.016,-1.136,-1.115,4.061,0.458,1648773
0.217,-0.016,-1.138,-0.763,4.397,0.656,1652784
0.220,-0.015,-1.136,-0.382,4.733,0.779,1656796
0.231,-0.025,-1.142,-0.244,4.855,0.824,1660807
0.232,-0.031,-1.141,-0.076,4.916,0.687,1664818
0.239,-0.034,-1.135,-0.183,4.779,0.718,1668829
0.239,-0.031,-1.142,-0.183,4.183,0.534,1672840
0.246,-0.036,-1.147,-0.229,3.817,0.534,1676851
0.249,-0.039,-1.144,-0.519,2.885,0.153,1680862
0.245,-0.038,-1.148,-0.977,2.214,0.000,1684873
0.249,-0.041,-1.153,-1.359,1.450,-0.107,1688885
0.254,-0.042,-1.154,-1.954,0.595,-0.595,1692897
0.246,-0.041,-1.154,-2.794,-0.015,-0.794,1696908
0.245,-0.040,-1.157,-3.313,-0.656,-1.160,1700919
0.238,-0.043,-1.151,-4.046,-0.931,-1.130,1704930
0.229,-0.041,-1.141,-4.763,-1.115,-1.160,1708941
0.219,-0.036,-1.149,-5.206,-1.282,-1.298,1712961
0.213,-0.027,-1.143,-5.206,-1.069,-1.130,1716973
0.219,-0.029,-1.140,-5.221,-0.458,-1.237,1720984
0.208,-0.019,-1.148,-5.237,0.122,-1.053,1724995
0.217,-0.019,-1.136,-5.023,0.718,-1.099,1729006
0.210,-0.025,-1.132,-4.962,1.313,-0.962,1733026
0.202,-0.026,-1.133,-4.885,2.015,-0.885,1737038
0.214,-0.018,-1.136,-4.443,2.550,-1.069,1741048
0.219,-0.014,-1.139,-3.649,2.901,-0.977,1745059
0.235,-0.016,-1.134,-3.328,3.221,-1.038,1749070
0.231,-0.020,-1.129,-3.053,3.069,-0.901,1753088
0.235,-0.032,-1.143,-2.580,2.733,-0.870,1757099
0.240,-0.025,-1.142,-2.183,2.183,-0.733,1761110
0.242,-0.023,-1.135,-1.740,1.588,-0.748,1765121
0.239,-0.019,-1.149,-1.435,1.160,-1.069,1769132
0.239,-0.020,-1.145,-0.962,0.870,-1.069,1773142
0.242,-0.031,-1.155,-0.733,0.427,-1.130,1777154
0.237,-0.031,-1.154,-0.702,-0.198,-1.084,1781164
0.232,-0.035,-1.148,-0.824,-0.137,-1.084,1785175
0.214,-0.028,-1.149,-1.084,-0.336,-0.916,1789187
0.213,-0.025,-1.156,-1.267,-0.137,-0.779,1793207
0.218,-0.034,-1.153,-1.634,0.107,-0.733,1797218
0.217,-0.033,-1.152,-2.168,0.366,-0.763,1801229
0.214,-0.036,-1.160,-2.595,0.427,-0.977,1805240
0.223,-0.031,-1.152,-3.282,0.336,-1.344,1809251
0.224,-0.029,-1.152,-3.832,0.504,-1.496,1813272
0.216,-0.031,-1.153,-4.198,0.290,-1.328,1817283
0.223,-0.025,-1.145,-4.611,0.244,-1.496,1821294
0.218,-0.025,-1.148,-4.550,0.122,-1.450,1825306
0.222,-0.019,-1.147,-4.260,0.382,-1.282,1829317
0.214,-0.022,-1.138,-4.122,0.534,-1.267,1833335
0.214,-0.013,-1.143,-3.802,0.534,-1.328,1837345
0.213,-0.017,-1.141,-3.542,0.656,-1.344,1841356
0.214,-0.019,-1.140,-3.145,0.763,-1.542,1845367
0.212,-0.023,-1.139,-3.008,0.702,-1.282,1849378
0.214,-0.019,-1.138,-2.855,0.748,-1.374,1853389
0.215,-0.023,-1.141,-2.687,0.824,-1.252,1857400
0.209,-0.017,-1.137,-2.504,0.916,-0.870,1861411
0.209,-0.021,-1.137,-2.290,0.977,-0.534,1865422
0.210,-0.016,-1.140,-1.985,1.191,-0.626,1869433
0.211,-0.024,-1.133,-1.771,1.267,-0.321,1873444
0.217,-0.020,-1.144,-1.481,1.282,-0.061,1877456
0.217,-0.028,-1.141,-1.588,1.145,-0.061,1881466
0.236,-0.030,-1.149,-1.710,0.626,-0.061,1885478
0.229,-0.040,-1.153,-1.832,-0.076,0.198,1889489
0.245,-0.035,-1.141,-2.000,-0.550,0.076,1893499
0.241,-0.031,-1.147,-1.908,-1.160,-0.015,1897510
0.236,-0.031,-1.144,-2.214,-1.481,-0.061,1901521
0.227,-0.030,-1.137,-2.122,-1.817,-0.366,1905532
0.232,-0.028,-1.134,-2.031,-1.618,-0.458,1909543
0.220,-0.027,-1.147,-2.198,-1.511,-0.229,1913554
0.223,-0.030,-1.144,-2.092,-1.145,-0.565,1917566
0.218,-0.039,-1.139,-2.305,-0.595,-0.397,1921577
0.211,-0.029,-1.141,-2.458,-0.275,-0.641,1925589
0.211,-0.032,-1.148,-2.626,0.382,-0.748,1929600
0.207,-0.030,-1.141,-2.702,0.962,-0.962,1933620
0.212,-0.031,-1.150,-2.916,1.573,-1.038,1937631
0.218,-0.034,-1.143,-2.916,2.153,-1.069,1941642
0.216,-0.035,-1.142,-3.023,2.656,-0.916,1945653
0.217,-0.038,-1.143,-3.221,2.840,-0.840,1949664
0.225,-0.038,-1.144,-3.298,3.145,-1.099,1953685
0.229,-0.034,-1.139,-3.664,3.115,-1.145,1957696
0.228,-0.031,-1.142,-3.817,2.824,-1.344,1961708
0.224,-0.027,-1.146,-3.817,2.550,-1.282,1965719
0.227,-0.030,-1.148,-3.557,2.183,-1.359,1969730
0.232,-0.025,-1.142,-3.252,1.679,-1.099,1973742
0.234,-0.030,-1.142,-3.023,1.115,-0.992,1977752
0.244,-0.027,-1.140,-2.962,0.519,-0.733,1981763
0.235,-0.033,-1.138,-2.947,0.122,-0.794,1985774
0.226,-0.026,-1.139,-2.733,-0.229,-0.916,1989785
0.230,-0.021,-1.135,-2.427,-0.580,-0.519,1993798
0.223,-0.022,-1.142,-2.244,-0.733,-0.718,1997809
0.225,-0.027,-1.136,-1.847,-0.748,-0.351,2001820
