acc_x,acc_y,acc_z,gyro_x,gyro_y,gyro_z,time
-0.012,-0.058,-1.120,-6.107,0.718,-0.977,73576747
-0.008,-0.056,-1.122,-5.954,1.038,-1.084,73580793
-0.005,-0.055,-1.129,-6.107,1.053,-1.267,73584806
-0.022,-0.044,-1.133,-5.847,1.099,-1.573,73588817
-0.021,-0.046,-1.120,-5.725,1.023,-1.511,73592828
-0.017,-0.046,-1.121,-5.481,0.931,-1.817,73596839
-0.019,-0.045,-1.131,-5.359,1.420,-1.878,73600850
-0.025,-0.047,-1.123,-5.237,1.466,-2.275,73604857
-0.028,-0.051,-1.125,-4.977,1.481,-2.076,73608867
-0.019,-0.051,-1.125,-4.840,1.771,-1.924,73612878
-0.020,-0.051,-1.132,-4.763,2.214,-1.893,73616889
-0.023,-0.052,-1.124,-4.702,1.924,-1.634,73620900
-0.023,-0.049,-1.121,-4.489,1.786,-1.405,73624909
-0.027,-0.055,-1.119,-4.336,2.412,-1.557,73628920
-0.027,-0.053,-1.130,-4.061,2.351,-1.588,73632931
-0.034,-0.047,-1.125,-4.107,2.397,-1.786,73636942
-0.030,-0.054,-1.128,-4.412,2.458,-1.420,73640953
-0.029,-0.049,-1.123,-4.153,2.611,-1.588,73644967
-0.026,-0.052,-1.129,-4.260,2.427,-1.481,73648978
-0.027,-0.056,-1.122,-4.336,2.321,-1.542,73652989
-0.024,-0.055,-1.120,-4.122,2.473,-1.557,73657000
-0.015,-0.055,-1.122,-4.366,2.000,-1.511,73661011
-0.018,-0.058,-1.132,-4.321,1.802,-1.634,73665023
-0.019,-0.058,-1.129,-4.687,1.466,-1.191,73669034
-0.016,-0.061,-1.133,-4.901,0.947,-1.176,73673045
-0.022,-0.060,-1.135,-5.008,0.824,-1.084,73677056
-0.020,-0.058,-1.136,-5.481,0.702,-1.053,73681067
-0.030,-0.059,-1.137,-5.603,0.321,-1.099,73685080
-0.029,-0.055,-1.125,-5.664,0.504,-1.252,73689091
-0.030,-0.057,-1.133,-5.863,0.260,-1.496,73693102
-0.037,-0.049,-1.133,-6.092,0.397,-1.344,73697113
-0.040,-0.051,-1.125,-6.046,0.763,-1.389,73701124
-0.042,-0.042,-1.123,-6.244,1.038,-1.466,73705135
-0.041,-0.044,-1.130,-6.046,1.710,-1.328,73709146
-0.044,-0.035,-1.134,-5.908,1.939,-1.145,73713157
-0.041,-0.031,-1.129,-5.740,2.321,-1.252,73717168
-0.041,-0.037,-1.121,-5.176,3.252,-1.008,73721179
-0.036,-0.035,-1.124,-4.687,3.527,-0.504,73725190
-0.037,-0.039,-1.125,-4.489,4.198,-0.397,73729201
-0.041,-0.037,-1.132,-4.183,4.748,0.031,73733213
-0.031,-0.035,-1.133,-3.954,4.687,0.275,73737223
-0.033,-0.043,-1.127,-4.076,4.977,0.763,73741234
-0.032,-0.038,-1.119,-4.015,5.191,1.023,73745245
-0.026,-0.039,-1.121,-3.863,5.328,1.191,73749256
-0.030,-0.044,-1.125,-3.725,5.191,1.450,73753267
-0.023,-0.046,-1.116,-4.015,5.374,1.557,73757278
-0.023,-0.052,-1.126,-4.397,5.359,1.374,73761289
-0.023,-0.046,-1.126,-4.672,5.267,1.527,73765297
-0.018,-0.049,-1.128,-5.221,4.779,1.527,73769308
-0.015,-0.050,-1.134,-5.603,4.733,1.649,73773319
-0.013,-0.046,-1.129,-5.817,4.351,1.542,73777330
-0.017,-0.055,-1.117,-6.092,3.618,1.542,73781341
-0.009,-0.048,-1.128,-6.000,3.252,1.588,73785353
-0.011,-0.049,-1.122,-5.832,2.855,1.603,73789363
-0.017,-0.047,-1.125,-6.107,2.672,1.450,73793375
-0.019,-0.042,-1.127,-6.122,2.672,1.695,73797385
-0.023,-0.038,-1.127,-6.382,2.229,1.634,73801396
-0.024,-0.044,-1.130,-6.183,2.458,1.679,73805407
-0.032,-0.042,-1.125,-5.802,2.534,1.542,73809428
-0.028,-0.037,-1.128,-5.679,2.809,1.771,73813439
-0.021,-0.036,-1.130,-5.084,2.794,1.954,73817450
-0.027,-0.033,-1.122,-4.947,3.359,1.832,73821461
-0.031,-0.035,-1.128,-4.443,3.908,1.863,73825475
-0.035,-0.042,-1.119,-4.229,4.122,1.985,73829490
-0.034,-0.039,-1.125,-4.046,4.565,1.954,73833501
-0.026,-0.049,-1.123,-3.893,4.794,2.244,73837512
-0.024,-0.047,-1.126,-3.527,5.237,2.336,73841523
-0.020,-0.051,-1.130,-3.527,5.527,2.458,73845534
-0.026,-0.054,-1.117,-3.252,5.634,2.427,73849545
-0.016,-0.054,-1.127,-3.359,5.527,2.336,73853556
-0.013,-0.051,-1.129,-3.679,5.450,2.336,73857567
-0.003,-0.053,-1.124,-3.939,5.023,2.427,73861578
0.005,-0.060,-1.126,-4.046,5.008,2.427,73865590
0.003,-0.066,-1.130,-4.733,4.214,2.305,73869600
0.008,-0.066,-1.122,-5.176,3.679,2.412,73873611
0.007,-0.070,-1.129,-5.511,2.779,2.305,73877622
0.004,-0.068,-1.113,-6.214,1.985,2.198,73881633
0.005,-0.070,-1.125,-6.733,1.221,2.076,73885644
-0.000,-0.062,-1.121,-7.023,0.763,1.664,73889655
-0.009,-0.056,-1.128,-7.221,0.229,1.679,73893666
-0.010,-0.063,-1.125,-7.557,0.122,1.603,73897678
-0.008,-0.053,-1.129,-7.374,0.061,1.359,73901688
-0.012,-0.050,-1.119,-7.099,0.321,1.267,73905699
-0.014,-0.051,-1.120,-6.641,0.641,1.176,73909719
-0.016,-0.053,-1.121,-6.458,0.595,1.053,73913730
-0.019,-0.058,-1.117,-5.863,1.496,1.099,73917741
-0.022,-0.057,-1.119,-5.466,1.481,1.084,73921752
-0.014,-0.057,-1.113,-4.947,2.214,1.160,73925763
-0.016,-0.055,-1.121,-4.275,2.626,1.069,73929784
-0.022,-0.061,-1.122,-4.214,3.069,1.008,73933795
-0.007,-0.060,-1.116,-4.107,3.511,0.947,73937806
-0.013,-0.056,-1.104,-3.542,3.802,0.763,73941818
-0.010,-0.056,-1.104,-3.511,4.061,0.611,73945829
-0.014,-0.055,-1.111,-3.511,4.000,0.412,73949840
-0.010,-0.054,-1.108,-3.435,4.031,0.351,73953852
-0.009,-0.057,-1.112,-3.511,4.229,0.214,73957863
-0.004,-0.060,-1.119,-3.481,4.458,0.443,73961874
-0.002,-0.062,-1.117,-3.496,4.031,0.244,73965885
-0.007,-0.062,-1.122,-3.649,3.573,0.443,73969895
-0.003,-0.055,-1.124,-3.557,3.359,0.550,73973906
-0.001,-0.071,-1.120,-3.542,2.855,0.397,73977917
-0.010,-0.069,-1.129,-3.893,2.458,0.718,73981928
-0.010,-0.062,-1.129,-4.183,2.015,0.427,73985939
-0.018,-0.066,-1.129,-4.611,1.771,0.321,73989959
-0.021,-0.065,-1.125,-5.160,1.420,0.015,73993971
-0.021,-0.066,-1.131,-5.450,1.328,-0.153,73997981
-0.019,-0.071,-1.135,-5.664,1.481,-0.321,74001992
-0.026,-0.065,-1.121,-5.939,1.664,-0.275,74006004
-0.026,-0.060,-1.125,-6.290,2.015,-0.275,74010023
-0.032,-0.058,-1.120,-6.427,2.504,-0.275,74014035
-0.036,-0.057,-1.122,-6.763,2.656,-0.489,74018046
-0.039,-0.051,-1.116,-7.023,3.466,-0.244,74022057
-0.035,-0.057,-1.117,-7.084,4.092,-0.427,74026068
-0.035,-0.043,-1.118,-6.885,4.397,-0.290,74030086
-0.027,-0.049,-1.114,-6.687,4.504,-0.107,74034097
-0.024,-0.044,-1.110,-6.092,4.824,-0.168,74038108
-0.017,-0.043,-1.112,-5.740,4.916,-0.168,74042119
-0.013,-0.048,-1.102,-5.481,4.809,0.137,74046130
-0.014,-0.053,-1.106,-5.435,4.550,0.458,74050141
-0.013,-0.054,-1.109,-5.237,4.122,0.656,74054152
-0.010,-0.053,-1.104,-5.420,3.435,0.931,74058163
-0.003,-0.059,-1.109,-5.145,3.023,1.069,74062174
0.001,-0.057,-1.103,-5.053,2.321,1.160,74066185
0.001,-0.052,-1.099,-4.840,1.832,1.084,74070196
-0.001,-0.052,-1.106,-4.885,1.176,1.099,74074207
0.002,-0.053,-1.109,-4.916,0.870,0.992,74078218
-0.002,-0.054,-1.115,-4.901,-0.092,1.084,74082229
0.000,-0.052,-1.115,-4.916,-0.351,0.931,74086240
-0.009,-0.056,-1.121,-4.687,-0.702,0.947,74090250
-0.006,-0.059,-1.116,-4.748,-1.176,0.702,74094261
-0.009,-0.062,-1.121,-4.763,-1.359,0.565,74098272
-0.005,-0.073,-1.114,-4.656,-1.359,0.397,74102283
-0.010,-0.069,-1.117,-4.504,-1.420,0.351,74106294
-0.018,-0.065,-1.118,-4.443,-1.313,0.321,74110304
-0.012,-0.065,-1.132,-4.595,-1.053,0.443,74114316
-0.017,-0.071,-1.128,-4.763,-0.641,0.458,74118326
-0.009,-0.068,-1.118,-4.992,-0.107,0.412,74122337
-0.013,-0.068,-1.121,-4.885,0.397,0.061,74126348
-0.013,-0.068,-1.130,-4.382,0.931,0.336,74130368
-0.009,-0.065,-1.123,-3.847,1.328,0.260,74134379
-0.009,-0.065,-1.125,-3.573,1.527,0.168,74138390
-0.005,-0.071,-1.128,-3.053,1.786,-0.061,74142401
-0.004,-0.071,-1.139,-2.824,2.061,0.107,74146412
-0.007,-0.076,-1.135,-2.565,2.137,0.076,74150433
-0.004,-0.076,-1.128,-2.214,2.229,0.229,74154444
-0.001,-0.090,-1.131,-2.382,2.260,0.137,74158455
-0.002,-0.092,-1.134,-2.076,2.290,0.137,74162467
-0.004,-0.089,-1.139,-2.229,2.244,0.122,74166478
-0.002,-0.092,-1.123,-2.229,1.969,0.290,74170491
-0.007,-0.097,-1.128,-2.443,2.260,0.366,74174502
-0.002,-0.100,-1.143,-2.779,1.832,0.397,74178513
0.003,-0.102,-1.135,-3.069,1.863,0.183,74182525
0.013,-0.101,-1.134,-3.344,1.130,0.015,74186536
0.008,-0.108,-1.141,-3.649,0.779,-0.198,74190548
0.014,-0.107,-1.140,-3.557,0.305,-0.397,74194559
0.005,-0.107,-1.143,-3.527,-0.137,-0.427,74198570
0.005,-0.101,-1.138,-3.985,-1.038,-0.855,74202582
-0.006,-0.098,-1.141,-3.847,-0.962,-0.855,74206593
-0.007,-0.104,-1.146,-4.107,-0.824,-1.160,74210614
-0.011,-0.101,-1.146,-4.214,-1.038,-1.206,74214625
-0.022,-0.102,-1.147,-4.305,-0.947,-1.542,74218636
-0.020,-0.094,-1.146,-4.122,-0.290,-1.557,74222648
-0.017,-0.102,-1.149,-4.015,0.000,-1.405,74226664
-0.020,-0.103,-1.144,-3.649,0.977,-1.282,74230675
-0.021,-0.106,-1.152,-3.282,1.221,-0.962,74234687
-0.015,-0.106,-1.153,-3.053,1.496,-0.733,74238698
-0.011,-0.106,-1.155,-2.916,1.863,-0.656,74242710
-0.015,-0.110,-1.158,-3.023,1.954,-0.733,74246720
-0.014,-0.114,-1.154,-3.344,2.779,-0.870,74250731
-0.016,-0.114,-1.158,-3.191,3.053,-1.008,74254743
-0.017,-0.112,-1.157,-3.496,3.130,-1.206,74258754
-0.018,-0.112,-1.163,-3.450,3.237,-1.481,74262765
-0.013,-0.120,-1.158,-3.649,3.542,-1.863,74266776
-0.008,-0.117,-1.161,-3.771,3.527,-2.061,74270787
-0.001,-0.120,-1.151,-4.015,3.450,-2.198,74274798
-0.001,-0.119,-1.151,-4.275,3.481,-2.489,74278809
-0.006,-0.123,-1.151,-4.519,2.885,-2.092,74282820
-0.003,-0.123,-1.156,-4.550,2.427,-2.198,74286832
-0.002,-0.121,-1.156,-5.053,2.046,-1.908,74290843
-0.002,-0.119,-1.144,-4.992,1.282,-1.863,74294854
-0.006,-0.126,-1.156,-5.282,0.809,-1.634,74298865
0.001,-0.130,-1.159,-5.863,0.229,-1.405,74302876
0.001,-0.135,-1.171,-6.763,-0.458,-0.977,74306887
-0.001,-0.143,-1.164,-7.099,-0.550,-0.992,74310898
-0.009,-0.139,-1.161,-7.618,-1.038,-0.718,74314905
-0.009,-0.147,-1.153,-7.847,-1.573,-0.641,74318916
-0.001,-0.143,-1.169,-8.183,-2.198,-0.382,74322927
0.000,-0.147,-1.172,-8.275,-2.931,-0.214,74326938
0.005,-0.148,-1.161,-8.397,-3.405,-0.305,74330949
0.007,-0.153,-1.173,-8.305,-3.557,-0.305,74334961
0.002,-0.169,-1.178,-8.290,-3.771,-0.046,74338972
-0.001,-0.176,-1.179,-7.863,-3.924,-0.137,74342984
-0.001,-0.180,-1.177,-7.344,-3.679,0.107,74346995
0.003,-0.192,-1.181,-6.809,-3.725,-0.107,74351006
0.004,-0.202,-1.190,-6.366,-3.389,-0.031,74355018
0.011,-0.214,-1.187,-5.985,-3.069,-0.336,74359029
0.011,-0.229,-1.183,-5.679,-2.901,-0.031,74363041
0.008,-0.235,-1.188,-5.313,-2.550,-0.290,74367051
0.011,-0.240,-1.189,-5.603,-2.305,-0.382,74371062
0.008,-0.246,-1.188,-5.649,-1.847,-0.687,74375073
0.001,-0.239,-1.198,-6.305,-1.115,-1.099,74379084
0.002,-0.241,-1.190,-7.084,-0.473,-1.679,74383095
-0.007,-0.245,-1.193,-7.954,-0.427,-2.763,74387106
0.001,-0.238,-1.183,-9.053,0.290,-3.725,74391117
-0.005,-0.246,-1.199,-10.000,0.611,-4.534,74395127
-0.006,-0.259,-1.185,-11.511,1.084,-5.374,74399138
-0.001,-0.254,-1.180,-12.244,1.053,-5.725,74403149
0.002,-0.252,-1.185,-13.374,1.221,-6.153,74407160
0.001,-0.262,-1.183,-14.809,1.053,-6.046,74411171
-0.004,-0.261,-1.180,-16.244,0.885,-6.031,74415182
0.002,-0.260,-1.166,-17.099,0.305,-5.878,74419193
0.003,-0.260,-1.172,-17.786,-0.580,-5.374,74423203
0.007,-0.259,-1.158,-18.290,-1.527,-5.221,74427214
0.004,-0.261,-1.154,-18.611,-2.382,-4.672,74431226
0.006,-0.259,-1.150,-19.008,-3.435,-4.244,74435237
0.008,-0.264,-1.139,-18.947,-4.565,-3.634,74439248
0.003,-0.264,-1.132,-18.641,-5.267,-3.084,74443259
-0.010,-0.267,-1.117,-18.489,-6.214,-2.870,74447270
-0.010,-0.256,-1.118,-18.382,-6.931,-2.397,74451281
-0.016,-0.256,-1.116,-18.122,-7.649,-2.305,74455293
-0.014,-0.245,-1.104,-17.725,-8.061,-2.229,74459304
-0.019,-0.244,-1.105,-16.931,-8.229,-2.214,74463315
-0.002,-0.244,-1.083,-16.336,-8.473,-2.214,74467326
-0.016,-0.236,-1.085,-15.282,-8.198,-2.305,74471337
-0.023,-0.236,-1.089,-14.763,-8.229,-2.427,74475349
-0.033,-0.229,-1.086,-13.496,-7.557,-2.550,74479360
-0.038,-0.219,-1.083,-12.290,-7.160,-3.237,74483371
-0.047,-0.218,-1.096,-11.420,-6.397,-3.511,74487382
-0.049,-0.216,-1.101,-10.519,-5.908,-4.595,74491393
-0.054,-0.215,-1.093,-9.405,-4.748,-5.221,74495405
-0.059,-0.208,-1.098,-8.885,-3.969,-5.863,74499426
-0.052,-0.214,-1.091,-8.122,-3.557,-6.290,74503437
-0.044,-0.218,-1.098,-7.527,-2.992,-6.198,74507448
-0.040,-0.219,-1.099,-7.603,-2.550,-6.183,74511459
-0.042,-0.222,-1.099,-7.374,-1.679,-5.679,74515470
-0.034,-0.224,-1.094,-7.603,-1.420,-5.053,74519483
-0.038,-0.216,-1.101,-7.969,-1.221,-4.046,74523494
-0.034,-0.208,-1.085,-8.611,-1.359,-3.496,74527505
-0.030,-0.205,-1.081,-9.405,-1.267,-2.931,74531516
-0.032,-0.202,-1.078,-9.847,-1.817,-2.336,74535528
-0.031,-0.189,-1.070,-10.489,-2.336,-2.015,74539539
-0.018,-0.183,-1.066,-11.450,-2.885,-1.496,74543551
-0.020,-0.170,-1.066,-11.740,-3.145,-1.420,74547562
-0.024,-0.164,-1.067,-11.832,-3.786,-0.870,74551573
-0.022,-0.160,-1.060,-12.595,-3.802,-0.733,74555584
-0.022,-0.151,-1.062,-12.687,-3.695,-0.763,74559594
-0.034,-0.138,-1.056,-12.443,-3.344,-0.641,74563605
-0.048,-0.122,-1.067,-11.466,-3.191,-0.870,74567616
-0.051,-0.103,-1.083,-10.824,-3.008,-1.023,74571627
-0.051,-0.084,-1.080,-9.542,-2.183,-1.695,74575639
-0.055,-0.078,-1.087,-8.641,-1.511,-2.397,74579649
-0.072,-0.068,-1.081,-8.122,-0.168,-2.962,74583660
-0.068,-0.062,-1.090,-7.115,1.069,-3.313,74587671
-0.071,-0.053,-1.084,-5.634,1.969,-3.115,74591682
-0.065,-0.062,-1.083,-4.931,2.931,-2.611,74595693
-0.059,-0.061,-1.084,-4.107,4.397,-2.305,74599714
-0.048,-0.063,-1.086,-2.992,5.130,-1.618,74603725
-0.043,-0.070,-1.094,-2.519,6.000,-0.809,74607736
-0.040,-0.076,-1.090,-2.779,6.702,-0.061,74611748
-0.033,-0.076,-1.091,-2.702,7.069,0.595,74615759
-0.029,-0.067,-1.089,-2.687,7.221,1.313,74619780
-0.020,-0.062,-1.091,-2.458,7.359,1.939,74623790
-0.011,-0.061,-1.097,-2.092,7.359,2.366,74627801
-0.014,-0.062,-1.104,-1.939,7.023,2.779,74631812
-0.011,-0.061,-1.091,-2.244,6.901,2.977,74635823
-0.019,-0.048,-1.100,-2.214,7.267,2.962,74639834
-0.025,-0.038,-1.108,-1.542,7.573,2.595,74643845
-0.042,-0.043,-1.108,-1.725,8.092,1.969,74647856
-0.045,-0.034,-1.114,-1.771,8.153,1.374,74651867
-0.060,-0.027,-1.119,-1.969,8.595,0.565,74655878
-0.054,-0.017,-1.131,-2.427,9.298,0.076,74659888
-0.052,-0.017,-1.124,-3.084,9.969,0.092,74663899
-0.044,-0.010,-1.125,-3.695,10.626,0.122,74667910
-0.049,-0.007,-1.115,-4.412,11.542,0.641,74671921
-0.047,-0.004,-1.118,-6.015,12.107,1.389,74675932
-0.050,0.006,-1.106,-6.702,12.992,2.534,74679945
-0.058,0.018,-1.100,-7.008,13.618,3.145,74683956
-0.055,0.031,-1.095,-8.229,14.000,4.214,74687967
-0.050,0.041,-1.093,-8.962,13.847,5.420,74691978
-0.045,0.049,-1.078,-9.145,14.336,6.397,74695989
-0.041,0.060,-1.077,-9.359,14.626,7.237,74700009
-0.030,0.068,-1.076,-9.511,15.176,8.489,74704021
-0.036,0.074,-1.082,-8.840,15.389,9.099,74708032
-0.043,0.088,-1.082,-7.557,15.679,9.817,74712043
-0.052,0.104,-1.092,-6.733,15.221,10.397,74716054
-0.057,0.120,-1.086,-4.931,14.504,10.458,74720074
-0.064,0.127,-1.100,-2.992,14.015,10.397,74724085
-0.073,0.141,-1.115,-1.206,13.618,10.168,74728096
-0.078,0.151,-1.114,0.275,13.344,10.092,74732107
-0.082,0.161,-1.127,1.542,13.237,9.802,74736118
-0.090,0.158,-1.131,2.305,13.084,9.847,74740132
-0.096,0.162,-1.126,2.336,13.435,10.305,74744143
-0.102,0.158,-1.133,1.954,13.771,10.718,74748154
-0.102,0.155,-1.136,2.061,14.321,11.298,74752165
-0.098,0.157,-1.134,2.046,14.855,12.107,74756176
-0.092,0.154,-1.136,1.084,15.252,13.084,74760187
-0.084,0.155,-1.136,-0.107,15.786,13.893,74764198
-0.082,0.158,-1.138,-0.794,15.908,14.901,74768209
-0.077,0.160,-1.130,-1.115,16.229,15.817,74772220
-0.070,0.159,-1.142,-2.244,15.954,16.870,74776231
-0.054,0.158,-1.145,-2.748,16.031,17.527,74780242
-0.047,0.153,-1.137,-2.550,16.092,18.214,74784253
-0.036,0.159,-1.147,-2.427,15.511,18.779,74788265
-0.030,0.157,-1.136,-2.748,15.557,19.359,74792275
-0.024,0.163,-1.145,-2.794,14.794,19.588,74796286
-0.012,0.163,-1.148,-2.107,14.122,20.183,74800296
-0.002,0.160,-1.153,-1.466,13.328,20.656,74804308
0.017,0.152,-1.150,-1.511,12.641,20.718,74808319
0.018,0.149,-1.150,-1.313,11.954,20.992,74812330
0.019,0.148,-1.155,-0.794,11.130,21.252,74816341
0.015,0.151,-1.154,-0.107,9.893,21.160,74820361
0.009,0.151,-1.154,0.046,9.191,21.053,74824371
0.003,0.154,-1.165,-0.550,8.137,20.641,74828383
0.002,0.149,-1.156,-0.748,7.878,19.908,74832394
-0.009,0.148,-1.160,-0.641,7.924,18.779,74836405
-0.023,0.137,-1.157,-0.565,8.168,17.954,74840426
-0.026,0.142,-1.166,-1.267,8.168,17.191,74844438
-0.033,0.135,-1.166,-2.565,8.397,16.733,74848449
-0.023,0.137,-1.162,-3.695,8.427,16.397,74852460
-0.025,0.126,-1.162,-4.397,8.534,16.107,74856471
-0.014,0.123,-1.153,-5.832,8.443,16.046,74860482
-0.010,0.110,-1.161,-7.511,8.718,16.015,74864493
-0.001,0.121,-1.150,-9.542,8.122,16.290,74868505
0.001,0.113,-1.157,-10.885,8.122,16.641,74872516
0.011,0.101,-1.146,-11.863,7.420,16.779,74876527
0.016,0.110,-1.136,-12.748,6.870,16.733,74880537
0.020,0.112,-1.131,-13.924,6.885,16.855,74884548
0.020,0.105,-1.122,-14.916,6.519,16.824,74888559
0.024,0.115,-1.125,-15.603,6.718,16.626,74892570
0.017,0.111,-1.118,-16.092,6.779,16.397,74896581
0.023,0.112,-1.112,-15.863,7.115,16.076,74900601
0.023,0.117,-1.106,-15.176,7.160,15.664,74904612
0.027,0.117,-1.112,-14.763,7.542,15.313,74908623
0.035,0.116,-1.105,-13.664,7.573,14.809,74912634
0.053,0.116,-1.109,-12.840,7.527,14.198,74916645
0.057,0.112,-1.104,-11.557,7.069,13.557,74920665
0.066,0.112,-1.107,-10.198,7.069,13.053,74924675
0.059,0.110,-1.112,-9.084,6.473,12.183,74928686
0.069,0.106,-1.103,-8.427,5.878,11.252,74932697
0.062,0.108,-1.108,-7.573,5.099,10.260,74936709
0.054,0.100,-1.120,-7.206,4.168,9.099,74940720
0.066,0.100,-1.122,-6.595,3.267,8.061,74944732
0.057,0.095,-1.126,-5.450,2.580,6.870,74948742
0.064,0.089,-1.121,-5.023,2.092,6.153,74952753
0.058,0.076,-1.120,-4.870,1.435,5.878,74956764
0.068,0.074,-1.123,-5.435,1.359,5.527,74960775
0.076,0.068,-1.124,-5.802,0.534,4.809,74964786
0.067,0.064,-1.131,-6.183,0.244,4.244,74968797
0.066,0.053,-1.117,-6.260,0.275,4.061,74972808
0.065,0.057,-1.129,-6.397,0.595,3.740,74976820
0.069,0.056,-1.133,-6.244,0.321,3.313,74980831
0.062,0.047,-1.134,-6.840,0.214,2.412,74984842
0.061,0.053,-1.130,-6.916,-0.046,1.206,74988853
0.053,0.047,-1.140,-7.298,-0.031,0.382,74992864
0.049,0.052,-1.135,-7.313,-0.183,-0.779,74996875
0.043,0.049,-1.138,-7.160,0.382,-2.061,75000886
0.052,0.043,-1.141,-6.779,0.947,-2.977,75004899
0.054,0.051,-1.137,-6.718,1.328,-3.893,75008910
0.055,0.044,-1.152,-6.229,1.679,-4.061,75012921
0.044,0.035,-1.141,-6.183,2.137,-4.412,75016932
0.045,0.031,-1.142,-6.412,2.305,-4.870,75020943
0.041,0.023,-1.135,-6.443,1.908,-4.534,75024954
0.032,0.027,-1.137,-6.489,1.969,-4.611,75028966
0.035,0.022,-1.154,-6.107,1.588,-4.733,75032976
0.042,0.022,-1.142,-6.107,1.206,-4.794,75036987
0.044,0.011,-1.149,-5.664,1.069,-4.718,75040998
0.055,0.001,-1.145,-5.389,0.977,-4.580,75045010
0.054,0.003,-1.158,-5.221,1.115,-4.321,75049021
0.054,-0.002,-1.151,-5.160,1.038,-4.153,75053032
0.063,-0.004,-1.159,-5.511,0.702,-4.031,75057043
0.062,-0.013,-1.158,-5.786,0.382,-4.366,75061054
0.060,-0.029,-1.154,-5.878,-0.336,-4.595,75065066
0.064,-0.032,-1.162,-6.641,-0.534,-5.389,75069077
0.060,-0.029,-1.156,-7.221,-0.794,-5.985,75073088
0.057,-0.040,-1.164,-8.092,-0.992,-6.580,75077099
0.050,-0.039,-1.155,-8.870,-0.748,-7.313,75081110
0.048,-0.040,-1.163,-10.000,-0.794,-7.969,75085117
0.047,-0.046,-1.156,-10.916,-0.321,-8.473,75089128
0.048,-0.046,-1.153,-12.260,0.183,-9.038,75093139
0.043,-0.038,-1.151,-13.664,0.611,-9.557,75097151
0.021,-0.043,-1.143,-14.779,1.206,-9.893,75101162
0.016,-0.039,-1.130,-15.573,1.939,-10.366,75105172
0.005,-0.028,-1.128,-16.092,2.855,-10.794,75109183
-0.004,-0.025,-1.118,-16.626,3.603,-10.992,75113194
-0.009,-0.018,-1.111,-16.687,4.015,-11.542,75117205
-0.001,-0.016,-1.122,-16.641,4.733,-11.511,75121216
-0.000,-0.007,-1.113,-16.611,4.992,-11.282,75125227
0.008,-0.010,-1.103,-16.443,5.267,-10.824,75129238
0.010,-0.007,-1.092,-15.389,5.252,-10.626,75133249
0.004,-0.011,-1.089,-14.244,5.344,-10.107,75137260
0.001,-0.011,-1.089,-12.687,5.008,-9.099,75141271
0.008,-0.004,-1.096,-11.282,4.305,-8.412,75145282
0.018,-0.007,-1.103,-9.756,4.061,-7.557,75149293
0.023,-0.009,-1.108,-8.427,3.359,-6.885,75153304
0.023,-0.012,-1.104,-7.176,2.855,-5.924,75157315
0.027,-0.013,-1.107,-6.061,2.870,-5.298,75161326
0.024,-0.021,-1.111,-4.672,2.382,-4.489,75165337
0.034,-0.032,-1.115,-3.832,2.153,-3.908,75169348
0.036,-0.042,-1.120,-3.237,1.634,-3.847,75173359
0.031,-0.055,-1.124,-3.084,1.588,-3.496,75177371
0.030,-0.057,-1.117,-3.389,1.710,-3.786,75181382
0.022,-0.060,-1.128,-3.496,1.573,-3.985,75185393
0.030,-0.062,-1.119,-4.183,1.618,-4.290,75189414
0.020,-0.065,-1.115,-5.053,2.092,-4.779,75193425
0.020,-0.065,-1.125,-6.076,2.092,-5.634,75197436
0.019,-0.062,-1.121,-6.885,3.908,-6.198,75201447
0.015,-0.062,-1.121,-7.496,4.244,-6.336,75205460
0.007,-0.059,-1.122,-8.122,4.168,-6.427,75209471
0.009,-0.060,-1.117,-8.809,5.450,-6.763,75213482
0.007,-0.051,-1.113,-9.008,6.000,-7.710,75217493
0.004,-0.048,-1.110,-9.496,6.382,-8.214,75221504
0.010,-0.043,-1.107,-9.817,6.046,-8.611,75225515
0.017,-0.039,-1.104,-9.985,5.557,-8.275,75229527
0.015,-0.041,-1.110,-10.107,4.870,-7.985,75233537
0.018,-0.035,-1.100,-9.481,4.672,-7.481,75237548
0.021,-0.039,-1.108,-8.656,3.618,-6.855,75241559
0.023,-0.035,-1.105,-7.527,2.611,-6.198,75245571
0.024,-0.032,-1.104,-6.779,1.832,-5.450,75249582
0.017,-0.034,-1.102,-6.137,0.061,-5.099,75253593
0.014,-0.031,-1.099,-5.649,-0.748,-4.504,75257604
0.002,-0.037,-1.116,-4.962,-1.267,-4.260,75261615
-0.001,-0.031,-1.106,-3.924,-1.618,-3.634,75265626
-0.004,-0.032,-1.115,-2.824,-2.244,-3.282,75269636
-0.009,-0.029,-1.125,-2.000,-1.603,-2.947,75273647
-0.009,-0.037,-1.122,-1.313,-1.511,-2.504,75277658
0.002,-0.040,-1.132,-0.840,-1.206,-2.183,75281669
0.000,-0.052,-1.130,-0.931,-0.611,-1.496,75285681
0.000,-0.057,-1.131,-1.145,0.168,-0.962,75289701
-0.003,-0.057,-1.129,-1.481,0.305,-0.840,75293713
0.003,-0.061,-1.134,-1.542,0.687,-1.115,75297723
-0.000,-0.055,-1.134,-1.847,1.450,-1.069,75301734
0.010,-0.056,-1.126,-2.229,1.664,-1.344,75305746
0.005,-0.063,-1.133,-2.580,2.305,-1.313,75309766
0.004,-0.058,-1.134,-3.099,2.656,-1.939,75313777
0.006,-0.060,-1.139,-3.740,3.191,-2.321,75317788
0.009,-0.062,-1.138,-4.550,3.206,-2.656,75321799
0.011,-0.056,-1.143,-4.748,3.084,-2.977,75325810
0.012,-0.055,-1.144,-4.809,2.992,-2.885,75329828
0.016,-0.049,-1.131,-4.534,3.053,-2.840,75333839
0.014,-0.048,-1.137,-4.427,2.351,-2.504,75337851
0.019,-0.038,-1.129,-3.939,2.076,-2.015,75341861
0.014,-0.042,-1.139,-3.771,1.695,-1.618,75345872
0.014,-0.035,-1.130,-3.481,1.679,-1.160,75349882
0.017,-0.041,-1.129,-3.191,1.511,-0.962,75353893
0.014,-0.032,-1.147,-2.687,1.237,-0.702,75357904
0.014,-0.040,-1.129,-1.908,1.725,-0.137,75361915
0.004,-0.038,-1.135,-1.282,1.603,0.214,75365926
0.002,-0.033,-1.126,-0.458,1.756,0.641,75369937
0.008,-0.039,-1.131,-0.015,1.893,0.855,75373949
0.008,-0.042,-1.135,0.031,1.802,1.160,75377959
0.011,-0.048,-1.132,0.061,2.168,1.282,75381970
0.018,-0.050,-1.139,-0.397,2.260,1.481,75385981
0.023,-0.049,-1.138,-0.550,1.710,1.817,75390002
0.029,-0.054,-1.149,-0.916,1.618,1.832,75394013
0.031,-0.054,-1.138,-1.038,1.084,1.740,75398024
0.027,-0.059,-1.135,-1.603,1.053,1.786,75402036
0.030,-0.054,-1.135,-2.198,0.229,1.679,75406047
0.021,-0.054,-1.143,-3.130,-0.046,1.695,75410068
0.020,-0.046,-1.142,-4.061,-0.595,1.069,75414079
0.022,-0.043,-1.141,-4.519,-0.840,0.947,75418091
0.019,-0.039,-1.138,-4.962,-1.160,0.473,75422102
0.014,-0.041,-1.151,-4.855,-1.328,0.595,75426113
0.007,-0.038,-1.140,-5.099,-1.191,0.687,75430125
0.008,-0.037,-1.136,-5.496,-1.023,0.718,75434136
0.016,-0.037,-1.134,-6.046,-0.885,0.534,75438147
0.010,-0.028,-1.128,-6.626,-0.687,1.053,75442158
0.005,-0.026,-1.130,-6.809,-0.687,1.084,75446169
-0.008,-0.024,-1.135,-6.931,-0.046,1.145,75450180
-0.003,-0.017,-1.134,-6.458,0.214,1.664,75454192
-0.007,-0.013,-1.134,-5.878,0.580,1.634,75458202
-0.002,-0.010,-1.132,-5.359,1.099,1.542,75462213
0.008,-0.016,-1.130,-5.084,1.664,1.832,75466224
0.007,-0.013,-1.125,-4.321,1.832,2.015,75470235
0.010,-0.016,-1.138,-3.847,2.702,2.092,75474246
0.019,-0.011,-1.140,-3.237,2.336,2.641,75478257
0.032,-0.023,-1.129,-2.672,2.550,2.992,75482268
0.030,-0.027,-1.135,-1.695,2.443,3.267,75486279
0.036,-0.030,-1.137,-1.237,2.275,3.466,75490289
0.035,-0.032,-1.138,-1.389,1.939,4.092,75494300
0.034,-0.035,-1.144,-1.802,1.603,3.740,75498311
0.030,-0.043,-1.136,-2.763,0.992,3.389,75502322
0.030,-0.040,-1.139,-3.328,0.595,2.931,75506333
0.031,-0.041,-1.136,-3.695,0.565,2.244,75510353
0.035,-0.043,-1.128,-4.672,0.733,1.679,75514365
0.031,-0.046,-1.122,-4.809,0.397,1.252,75518376
0.024,-0.045,-1.136,-5.267,0.763,0.534,75522387
0.013,-0.041,-1.128,-6.015,1.053,0.015,75526398
0.013,-0.036,-1.135,-6.794,1.328,-0.336,75530418
0.013,-0.024,-1.135,-7.374,1.588,-0.687,75534429
0.013,-0.027,-1.136,-7.954,1.435,-0.855,75538441
0.024,-0.024,-1.134,-7.786,1.679,-0.901,75542451
0.012,-0.021,-1.138,-7.679,2.290,-0.748,75546462
0.012,-0.025,-1.131,-7.084,2.214,-0.672,75550480
0.013,-0.018,-1.138,-7.374,2.473,-0.748,75554491
0.011,-0.018,-1.128,-7.344,2.504,-0.412,75558502
0.016,-0.008,-1.129,-6.885,2.718,0.046,75562514
0.016,-0.011,-1.138,-6.427,2.595,0.397,75566525
0.022,-0.012,-1.139,-5.389,2.718,0.641,75570537
0.025,-0.001,-1.127,-4.214,3.038,1.069,75574547
0.018,-0.009,-1.141,-3.328,2.977,1.420,75578559
