acc_x,acc_y,acc_z,gyro_x,gyro_y,gyro_z
0.10,0.14,-1.09,-3.42,7.15,1.13
0.11,0.14,-1.09,-2.53,7.73,1.76
0.12,0.13,-1.09,-1.91,8.60,2.26
0.12,0.12,-1.09,-1.31,9.31,2.92
0.12,0.12,-1.10,-0.99,9.36,2.81
0.13,0.12,-1.10,-0.67,9.40,2.85
0.13,0.12,-1.10,-0.90,9.01,2.55
0.13,0.11,-1.10,-1.33,8.82,2.37
0.14,0.11,-1.10,-1.94,8.18,2.00
0.15,0.10,-1.11,-2.92,7.45,1.54
0.15,0.10,-1.11,-3.82,6.87,1.34
0.16,0.10,-1.10,-4.50,6.08,1.05
0.15,0.10,-1.10,-4.98,5.24,0.90
0.15,0.12,-1.10,-4.76,4.85,0.47
0.14,0.12,-1.10,-4.47,4.47,0.24
0.14,0.12,-1.09,-4.09,4.50,0.12
0.15,0.12,-1.11,-3.73,4.70,-0.20
0.14,0.12,-1.10,-3.60,4.46,-0.23
0.15,0.12,-1.11,-3.56,4.23,-0.34
0.15,0.11,-1.11,-3.50,4.09,-0.56
0.14,0.11,-1.11,-3.33,3.89,-0.52
0.15,0.11,-1.11,-3.25,3.22,-0.50
0.15,0.12,-1.11,-3.24,3.08,-0.55
0.15,0.11,-1.12,-3.39,2.31,-0.85
0.15,0.11,-1.12,-4.02,1.89,-0.52
0.14,0.11,-1.12,-4.47,1.30,-0.58
0.15,0.12,-1.11,-4.75,0.95,-0.53
0.15,0.11,-1.12,-5.18,0.98,-0.72
0.14,0.11,-1.11,-5.27,1.48,-0.49
0.14,0.12,-1.11,-5.57,1.85,-0.34
0.13,0.12,-1.11,-5.47,2.43,-0.17
0.13,0.12,-1.12,-5.40,3.18,0.00
0.13,0.12,-1.11,-4.96,3.65,0.27
0.14,0.12,-1.11,-4.50,3.71,0.70
0.14,0.12,-1.11,-3.85,3.71,1.07
0.15,0.13,-1.10,-3.39,3.66,1.08
0.15,0.12,-1.10,-2.87,3.27,0.98
0.15,0.12,-1.10,-2.78,2.55,0.85
0.15,0.11,-1.11,-2.73,1.97,0.96
0.15,0.11,-1.11,-3.21,1.27,0.72
0.16,0.12,-1.11,-3.68,0.70,0.44
0.15,0.11,-1.12,-3.92,0.61,0.56
0.15,0.11,-1.12,-4.43,0.64,0.55
0.14,0.11,-1.12,-4.75,0.76,0.55
0.14,0.11,-1.12,-4.93,0.89,0.63
0.14,0.10,-1.11,-5.25,1.34,1.04
0.14,0.11,-1.11,-5.25,1.79,0.95
0.14,0.11,-1.11,-5.54,2.23,0.85
0.15,0.11,-1.13,-5.51,2.72,0.82
0.15,0.11,-1.12,-5.44,2.85,0.60
0.15,0.11,-1.11,-5.34,2.99,0.76
0.15,0.12,-1.11,-4.73,2.82,0.61
0.15,0.11,-1.10,-4.34,2.95,0.69
0.15,0.11,-1.11,-4.08,2.85,0.44
0.15,0.12,-1.11,-4.00,2.79,0.41
0.16,0.11,-1.11,-4.11,2.89,0.02
0.15,0.10,-1.10,-4.14,2.17,-0.11
0.16,0.10,-1.11,-4.49,1.62,-0.38
0.16,0.09,-1.11,-4.43,1.04,-0.66
0.16,0.09,-1.11,-4.23,0.61,-0.76
0.15,0.08,-1.12,-3.95,0.58,-0.89
0.16,0.08,-1.11,-4.14,0.69,-0.93
0.15,0.07,-1.12,-4.06,0.81,-0.58
0.15,0.07,-1.12,-3.53,1.47,-0.75
0.15,0.06,-1.13,-3.36,2.06,-1.08
0.14,0.04,-1.14,-2.58,2.20,-1.02
0.13,0.02,-1.16,-2.40,2.72,-0.76
0.13,-0.02,-1.16,-2.67,3.15,-0.09
0.13,-0.05,-1.17,-3.39,3.85,0.49
0.12,-0.07,-1.17,-3.98,4.67,1.50
0.12,-0.10,-1.17,-4.93,4.81,1.95
0.13,-0.13,-1.16,-6.41,5.89,2.56
0.13,-0.15,-1.14,-7.77,6.67,2.67
0.15,-0.17,-1.12,-8.87,7.30,2.63
0.16,-0.17,-1.12,-9.51,8.00,2.27
0.18,-0.19,-1.09,-9.31,8.32,1.71
0.20,-0.21,-1.07,-8.75,8.37,0.99
0.21,-0.23,-1.06,-7.37,7.82,0.32
0.24,-0.25,-1.06,-5.83,6.95,-0.64
0.25,-0.28,-1.06,-3.88,5.88,-1.92
0.25,-0.29,-1.07,-1.62,4.46,-3.40
0.26,-0.29,-1.09,0.00,2.46,-5.21
0.25,-0.32,-1.09,1.13,0.89,-6.73
0.24,-0.35,-1.09,1.59,-1.21,-8.15
0.25,-0.37,-1.12,1.10,-3.05,-9.02
0.25,-0.39,-1.11,0.20,-4.72,-9.85
0.25,-0.40,-1.11,-1.68,-6.58,-10.82
0.25,-0.40,-1.09,-3.79,-7.68,-12.95
0.25,-0.41,-1.09,-6.43,-9.44,-15.86
0.23,-0.41,-1.07,-9.82,-10.32,-18.82
0.21,-0.41,-1.05,-12.90,-10.61,-21.71
0.21,-0.40,-1.04,-15.80,-10.87,-24.18
0.20,-0.40,-1.03,-18.17,-10.98,-26.60
0.20,-0.39,-1.02,-19.07,-11.16,-28.53
0.18,-0.38,-1.02,-19.16,-11.05,-30.23
0.18,-0.37,-1.02,-18.32,-11.37,-31.40
0.18,-0.36,-1.03,-16.92,-11.97,-32.34
0.18,-0.36,-1.03,-15.69,-12.87,-32.92
0.16,-0.37,-1.02,-15.31,-13.94,-32.95
0.14,-0.38,-1.01,-16.56,-14.61,-32.99
0.12,-0.35,-0.99,-18.73,-14.73,-32.98
0.11,-0.31,-0.99,-21.21,-14.66,-33.65
0.09,-0.28,-0.98,-24.12,-14.02,-34.41
0.07,-0.26,-0.96,-27.15,-13.69,-35.10
0.04,-0.24,-0.96,-29.73,-12.09,-34.53
0.03,-0.21,-0.96,-30.64,-10.17,-32.84
0.03,-0.17,-0.98,-29.21,-7.82,-30.41
0.03,-0.12,-0.99,-26.24,-5.15,-27.33
0.04,-0.10,-1.00,-21.56,-2.84,-24.02
0.04,-0.08,-1.03,-16.06,-0.12,-20.18
0.03,-0.08,-1.04,-10.69,2.67,-16.92
0.04,-0.08,-1.06,-5.63,6.02,-13.71
0.06,-0.08,-1.08,-2.87,9.31,-12.02
0.07,-0.09,-1.09,-2.11,12.66,-10.31
0.08,-0.09,-1.11,-2.92,15.44,-8.79
0.11,-0.09,-1.12,-6.55,17.77,-7.74
0.11,-0.07,-1.11,-11.13,19.80,-7.69
0.12,-0.04,-1.12,-14.93,21.91,-7.74
0.12,0.01,-1.11,-17.97,23.97,-7.83
0.11,0.05,-1.11,-20.00,25.68,-6.61
0.12,0.07,-1.11,-21.66,27.31,-5.85
0.14,0.09,-1.11,-21.80,28.82,-5.73
0.13,0.14,-1.10,-20.24,30.12,-5.36
0.12,0.19,-1.12,-17.71,31.04,-4.05
0.12,0.22,-1.11,-14.55,32.34,-1.71
0.11,0.24,-1.12,-10.21,34.40,1.57
0.11,0.26,-1.14,-4.90,36.60,4.26
0.09,0.28,-1.16,-0.15,38.64,7.54
0.07,0.27,-1.14,4.03,41.15,10.82
0.06,0.28,-1.15,7.63,43.77,14.15
0.07,0.30,-1.14,10.08,45.76,17.51
0.07,0.30,-1.13,10.84,46.41,21.76
0.08,0.33,-1.13,10.64,46.60,26.90
0.09,0.35,-1.11,10.12,45.47,31.59
0.10,0.39,-1.10,10.49,44.05,35.24
0.11,0.42,-1.10,12.18,42.14,37.50
0.11,0.47,-1.10,14.84,39.56,38.99
0.12,0.50,-1.12,18.89,37.19,40.21
0.14,0.54,-1.14,24.00,35.34,41.94
0.16,0.55,-1.18,27.95,33.08,43.95
0.16,0.54,-1.21,30.81,30.95,45.94
0.16,0.55,-1.24,33.36,28.58,47.85
0.14,0.55,-1.24,35.05,26.52,50.20
0.11,0.56,-1.24,35.65,25.05,52.79
0.10,0.57,-1.24,35.11,24.34,56.02
0.10,0.57,-1.24,33.91,24.40,58.89
0.10,0.56,-1.24,32.49,23.98,62.06
0.11,0.57,-1.22,31.88,23.39,65.02
0.13,0.58,-1.20,30.29,23.91,67.76
0.15,0.58,-1.19,29.74,24.21,69.89
0.18,0.57,-1.19,29.08,24.49,70.53
0.24,0.57,-1.19,28.55,24.56,70.41
0.28,0.57,-1.19,27.74,24.17,68.87
0.34,0.56,-1.21,26.75,23.01,66.31
0.38,0.55,-1.23,25.13,20.89,63.05
0.41,0.53,-1.24,22.96,17.39,58.98
0.40,0.54,-1.24,20.38,13.83,54.47
0.40,0.54,-1.24,17.40,11.07,49.73
0.38,0.53,-1.24,13.51,8.43,45.04
0.37,0.52,-1.23,9.85,6.37,40.23
0.34,0.49,-1.22,5.08,4.56,36.17
0.33,0.47,-1.19,-0.63,2.87,31.86
0.31,0.45,-1.16,-6.92,1.86,27.89
0.29,0.44,-1.13,-12.89,1.36,24.31
0.27,0.43,-1.10,-18.11,1.08,20.78
0.25,0.42,-1.04,-22.44,1.21,17.63
0.24,0.42,-1.00,-24.14,1.80,15.21
0.24,0.44,-0.99,-22.87,1.95,13.19
0.27,0.45,-0.97,-19.73,1.59,11.16
0.29,0.44,-0.96,-16.85,-0.14,9.40
0.30,0.41,-0.96,-13.11,-3.51,7.77
0.30,0.40,-0.98,-8.93,-6.41,6.11
0.30,0.39,-1.00,-5.15,-9.40,4.12
0.27,0.36,-1.02,-2.52,-10.85,2.24
0.26,0.32,-1.04,-0.49,-11.69,0.46
0.24,0.30,-1.08,0.67,-11.18,-0.38
0.24,0.26,-1.09,0.66,-10.63,-0.64
0.25,0.23,-1.10,-0.47,-9.45,-0.75
0.25,0.20,-1.12,-2.11,-7.83,-0.78
0.26,0.19,-1.12,-3.85,-6.21,-1.30
0.26,0.18,-1.12,-5.60,-4.55,-1.95
0.26,0.17,-1.12,-7.04,-2.72,-3.01
0.28,0.15,-1.12,-7.74,-1.74,-3.88
0.30,0.15,-1.12,-7.54,-1.13,-3.79
0.32,0.16,-1.15,-5.97,-1.65,-4.47
0.33,0.15,-1.17,-4.81,-2.89,-5.28
0.33,0.14,-1.17,-3.91,-4.43,-6.89
0.32,0.12,-1.17,-3.30,-5.83,-9.15
0.30,0.10,-1.17,-3.73,-7.24,-10.87
0.28,0.10,-1.16,-4.41,-8.49,-11.27
0.23,0.09,-1.16,-4.78,-8.00,-10.64
0.20,0.08,-1.15,-5.33,-7.25,-9.01
0.17,0.09,-1.13,-5.91,-5.42,-6.98
0.15,0.07,-1.11,-6.20,-2.73,-4.63
0.16,0.07,-1.10,-6.52,-0.46,-3.44
0.18,0.05,-1.11,-6.61,1.42,-2.21
0.20,0.05,-1.09,-7.11,1.95,-1.91
0.23,0.04,-1.08,-7.74,1.57,-1.63
0.24,0.03,-1.07,-8.92,0.46,-1.86
0.25,0.03,-1.06,-9.65,-0.78,-2.38
0.25,0.04,-1.06,-9.86,-1.44,-3.47
0.25,0.06,-1.07,-9.69,-1.56,-4.08
0.25,0.08,-1.07,-10.03,-1.02,-4.55
0.24,0.07,-1.08,-10.60,0.08,-5.13
0.24,0.06,-1.08,-10.99,1.04,-5.63
0.24,0.07,-1.09,-11.69,1.59,-6.00
0.25,0.08,-1.10,-12.78,1.36,-5.53
0.25,0.08,-1.10,-13.97,0.63,-4.32
0.24,0.09,-1.10,-14.17,0.66,-3.27
0.23,0.09,-1.11,-14.55,0.50,-2.34
0.23,0.10,-1.10,-14.50,0.70,-1.89
0.23,0.09,-1.11,-14.44,1.47,-1.24
0.23,0.09,-1.11,-13.98,2.81,-1.15
0.25,0.07,-1.11,-14.43,3.94,-1.18
0.26,0.05,-1.11,-14.98,3.92,-1.36
0.27,0.03,-1.13,-15.63,3.54,-1.71
0.27,0.05,-1.12,-16.03,2.85,-2.06
0.26,0.06,-1.13,-15.98,2.56,-2.66
0.25,0.06,-1.13,-16.37,2.55,-3.59
0.24,0.05,-1.13,-16.41,2.85,-4.35
0.23,0.05,-1.12,-16.06,3.47,-4.92
0.22,0.05,-1.13,-16.49,3.95,-5.59
0.22,0.05,-1.12,-16.53,4.21,-5.66
0.21,0.05,-1.11,-16.69,5.01,-5.66
0.21,0.06,-1.11,-17.24,5.37,-5.94
0.20,0.06,-1.10,-17.80,5.68,-6.37
0.20,0.07,-1.09,-17.63,6.03,-6.31
0.20,0.09,-1.11,-16.75,6.23,-5.98
0.19,0.10,-1.10,-15.63,6.47,-5.30
0.19,0.11,-1.09,-14.11,7.05,-3.53
0.18,0.10,-1.09,-12.31,7.47,-2.55
0.19,0.09,-1.09,-11.31,7.56,-1.51
0.20,0.07,-1.10,-10.18,7.34,-0.61
0.20,0.07,-1.10,-9.27,7.40,0.35
0.21,0.08,-1.11,-8.52,7.39,1.33
0.21,0.09,-1.11,-7.28,7.37,2.23
0.21,0.09,-1.11,-6.11,7.37,2.81
0.22,0.10,-1.12,-5.22,7.54,2.90
0.23,0.08,-1.11,-4.82,7.66,2.67
0.24,0.08,-1.13,-5.04,7.86,2.21
0.24,0.08,-1.14,-5.85,7.59,1.59
0.24,0.07,-1.15,-6.90,7.57,0.64
0.25,0.07,-1.15,-8.31,6.60,-0.12
0.24,0.08,-1.14,-9.04,6.40,-0.46
0.24,0.09,-1.13,-9.42,6.02,-0.92
0.25,0.09,-1.12,-8.76,5.15,-1.05
0.25,0.10,-1.12,-7.89,4.53,-1.19
0.26,0.10,-1.13,-6.69,3.76,-1.24
0.25,0.11,-1.12,-5.33,3.45,-1.22
0.24,0.10,-1.12,-3.95,3.53,-0.89
0.25,0.10,-1.12,-2.99,3.34,-1.11
0.25,0.09,-1.12,-3.04,2.96,-1.28
0.24,0.09,-1.12,-3.10,2.61,-1.28
0.24,0.09,-1.12,-3.22,2.49,-0.82
0.24,0.08,-1.12,-3.65,2.60,-0.78
0.22,0.07,-1.12,-4.52,2.78,-1.13
0.22,0.06,-1.12,-4.99,2.82,-1.66
0.24,0.07,-1.10,-6.00,2.98,-2.03
0.23,0.08,-1.11,-6.82,2.98,-2.64
0.24,0.08,-1.10,-6.99,2.87,-3.25
0.24,0.09,-1.09,-6.72,2.52,-3.69
0.24,0.10,-1.08,-5.95,2.37,-4.23
0.23,0.11,-1.07,-4.53,2.35,-4.18
0.23,0.12,-1.06,-2.90,2.58,-4.03
0.22,0.12,-1.06,-0.96,3.01,-3.89
0.23,0.11,-1.06,0.43,2.90,-3.92
0.22,0.11,-1.07,1.76,2.95,-4.06
0.22,0.10,-1.08,2.44,3.24,-3.66
0.22,0.09,-1.08,2.52,2.99,-2.84
0.22,0.06,-1.08,2.38,2.69,-1.28
0.21,0.05,-1.07,1.66,2.82,0.24
0.21,0.05,-1.09,0.90,2.96,1.33
0.21,0.05,-1.08,-0.24,4.05,1.27
0.21,0.06,-1.07,-1.22,5.39,0.00
0.22,0.06,-1.08,-2.53,6.61,-0.69
0.23,0.06,-1.08,-2.93,7.36,-1.08
0.24,0.07,-1.07,-3.11,7.76,-0.96
0.25,0.08,-1.08,-2.52,7.73,-0.78
0.25,0.09,-1.08,-1.62,7.39,-0.73
0.26,0.10,-1.08,-0.69,7.48,-0.73
0.26,0.10,-1.08,0.35,7.18,-0.69
0.26,0.09,-1.10,1.04,6.78,-0.92
0.27,0.09,-1.10,1.76,6.70,-1.18
0.26,0.09,-1.11,1.76,6.35,-1.31
0.27,0.08,-1.11,1.68,5.36,-1.28
0.27,0.07,-1.12,1.04,4.69,-1.10
0.26,0.07,-1.13,0.72,4.17,-0.52
0.26,0.07,-1.11,-0.03,3.50,0.34
0.25,0.06,-1.13,-1.28,3.10,1.13
0.25,0.05,-1.14,-2.93,2.53,2.38
0.25,0.04,-1.14,-5.18,2.12,3.48
0.26,0.03,-1.13,-7.77,1.97,3.85
0.26,0.05,-1.13,-9.68,2.03,3.71
0.26,0.06,-1.13,-10.66,2.18,3.16
0.26,0.07,-1.11,-11.25,2.90,2.66
0.27,0.10,-1.11,-10.29,3.36,2.41
0.27,0.11,-1.10,-8.79,3.21,2.37
0.27,0.13,-1.10,-7.02,3.24,2.81
0.28,0.12,-1.10,-5.40,2.82,3.04
0.27,0.11,-1.09,-3.92,2.72,3.10
0.26,0.09,-1.10,-3.59,2.73,3.08
0.26,0.08,-1.10,-3.27,2.76,2.85
0.25,0.08,-1.10,-3.24,3.40,2.52
0.25,0.06,-1.11,-4.08,3.42,2.35
0.26,0.06,-1.11,-5.34,2.93,1.98
0.27,0.04,-1.11,-6.82,2.32,2.05
0.27,0.06,-1.12,-8.00,1.95,1.94
0.26,0.07,-1.11,-8.63,1.80,2.03
0.26,0.09,-1.11,-8.95,1.34,1.57
0.26,0.09,-1.12,-9.24,1.34,0.99
0.26,0.08,-1.13,-9.85,0.98,0.18
0.26,0.09,-1.11,-10.24,0.84,-0.43
0.26,0.10,-1.12,-10.02,0.26,-0.56
0.26,0.11,-1.12,-9.48,-0.15,-0.44
0.24,0.11,-1.12,-8.76,-0.50,0.02
0.24,0.11,-1.12,-8.52,-0.17,0.20
0.23,0.10,-1.12,-8.46,0.37,0.06
0.22,0.10,-1.11,-8.34,1.36,0.27
0.22,0.09,-1.12,-8.43,2.15,0.67
0.22,0.10,-1.12,-8.53,2.79,1.30
0.23,0.09,-1.12,-8.92,2.79,1.65
0.23,0.09,-1.11,-9.36,2.50,2.05
0.24,0.09,-1.11,-9.56,1.59,1.80
0.24,0.10,-1.11,-9.88,-0.03,1.36
0.25,0.11,-1.11,-9.33,-1.45,1.05
0.24,0.11,-1.10,-8.81,-2.37,0.69
0.23,0.11,-1.10,-7.76,-2.93,0.55
0.23,0.12,-1.09,-6.73,-3.60,-0.06
0.23,0.12,-1.10,-5.31,-3.42,0.02
0.22,0.12,-1.09,-3.89,-3.04,0.05
0.22,0.12,-1.10,-2.61,-2.29,0.63
0.21,0.10,-1.10,-1.74,-1.89,0.99
0.21,0.08,-1.09,-1.83,-1.34,1.22
0.22,0.08,-1.10,-2.34,-0.63,0.67
0.23,0.06,-1.10,-3.10,-0.11,0.03
0.23,0.06,-1.09,-4.03,0.26,-0.70
0.24,0.07,-1.09,-4.78,-0.17,-1.76
0.24,0.07,-1.08,-5.63,-0.63,-2.64
0.26,0.07,-1.08,-6.23,-1.57,-3.69
0.25,0.08,-1.07,-6.14,-2.56,-4.38
0.25,0.09,-1.07,-6.17,-3.77,-4.69
0.24,0.09,-1.08,-6.14,-4.53,-4.78
0.23,0.11,-1.08,-5.51,-5.08,-4.17
0.21,0.10,-1.07,-4.90,-5.24,-3.57
0.21,0.11,-1.09,-4.27,-4.56,-3.05
0.20,0.11,-1.09,-3.63,-3.69,-2.05
0.20,0.11,-1.09,-2.93,-2.76,-1.51
0.21,0.11,-1.10,-2.41,-2.29,-0.69
0.22,0.11,-1.09,-1.92,-2.32,-0.14
0.21,0.11,-1.09,-1.47,-2.37,0.64
0.22,0.11,-1.10,-1.50,-2.15,1.59
0.24,0.10,-1.10,-1.45,-2.63,2.03
0.23,0.10,-1.10,-1.19,-2.44,2.52
0.23,0.10,-1.11,-0.82,-1.88,2.87
0.23,0.09,-1.10,-1.25,-1.10,3.27
0.23,0.09,-1.12,-1.27,-0.75,3.40
0.24,0.07,-1.12,-2.24,-0.70,3.25
0.25,0.06,-1.13,-3.69,-1.27,3.22
0.27,0.06,-1.14,-5.33,-2.31,3.19
0.27,0.06,-1.14,-7.05,-3.83,2.63
0.26,0.06,-1.13,-8.29,-4.32,2.12
0.25,0.07,-1.12,-8.92,-4.58,1.89
0.24,0.08,-1.12,-9.01,-4.00,1.77
0.24,0.10,-1.11,-8.05,-2.50,2.08
0.24,0.10,-1.10,-7.22,-1.21,2.27
0.24,0.09,-1.10,-6.46,0.15,2.37
0.25,0.08,-1.10,-6.15,0.96,1.95
0.26,0.07,-1.09,-5.94,1.37,1.34
0.27,0.07,-1.08,-5.88,1.40,0.79
0.27,0.07,-1.08,-5.89,1.01,0.12
0.27,0.08,-1.08,-5.50,0.24,-0.38
0.26,0.08,-1.08,-4.67,-0.18,-0.81
0.27,0.09,-1.07,-4.02,-0.44,-1.18
0.25,0.09,-1.07,-3.04,-0.53,-1.59
0.24,0.09,-1.08,-2.55,-0.03,-1.83
0.23,0.08,-1.07,-2.14,0.81,-1.79
0.22,0.07,-1.08,-2.12,1.82,-1.60
0.23,0.07,-1.09,-1.56,2.96,-1.76
0.23,0.08,-1.08,-1.60,4.05,-1.15
0.23,0.07,-1.09,-1.77,4.79,-0.84
0.23,0.08,-1.09,-1.88,5.71,-0.63
0.23,0.08,-1.08,-1.79,6.21,-0.38
0.24,0.08,-1.09,-1.48,6.75,-0.11
0.24,0.10,-1.08,-1.16,7.18,-0.26
0.23,0.10,-1.07,-0.40,7.59,-0.46
0.23,0.10,-1.05,0.49,8.37,-0.18
0.23,0.11,-1.06,1.62,8.79,-0.20
0.24,0.11,-1.07,3.30,9.36,0.12
0.24,0.10,-1.08,4.49,9.65,0.40
0.24,0.09,-1.09,5.82,9.60,0.52
0.26,0.08,-1.10,6.21,8.66,0.37
0.26,0.07,-1.11,6.43,7.88,0.56
0.27,0.04,-1.12,5.48,6.61,0.44
0.26,0.04,-1.13,3.95,5.60,0.44
0.25,0.03,-1.13,2.29,5.21,0.55
0.25,0.03,-1.12,0.72,5.51,0.20
0.24,0.04,-1.12,-0.90,6.11,-0.11
0.24,0.05,-1.11,-1.88,7.25,-0.53
0.23,0.06,-1.10,-2.05,8.53,-0.53
0.24,0.08,-1.11,-1.85,9.79,-0.75
0.25,0.08,-1.10,-1.42,10.89,-0.46
0.26,0.08,-1.09,-1.08,10.90,-0.79
0.27,0.08,-1.09,-0.81,10.61,-1.39
0.28,0.06,-1.10,-0.99,9.97,-2.14
0.28,0.06,-1.10,-1.30,8.92,-2.56
0.29,0.06,-1.10,-1.44,7.77,-3.18
0.28,0.07,-1.10,-1.57,6.63,-3.71
0.28,0.07,-1.10,-1.98,5.76,-4.02
0.27,0.07,-1.10,-2.24,4.76,-4.03
0.26,0.07,-1.10,-2.24,4.31,-3.91
0.25,0.07,-1.10,-2.75,4.15,-3.69
0.24,0.07,-1.10,-3.37,4.09,-3.08
0.24,0.07,-1.10,-3.83,4.17,-2.78
0.24,0.07,-1.12,-4.38,4.11,-2.15
0.23,0.07,-1.11,-4.75,4.24,-1.56
0.24,0.08,-1.11,-4.92,4.18,-1.25
0.24,0.08,-1.13,-4.90,3.97,-0.95
0.25,0.08,-1.13,-4.82,3.65,-0.41
0.25,0.08,-1.13,-5.51,3.51,0.12
0.25,0.07,-1.12,-5.73,3.33,0.27
0.25,0.07,-1.12,-6.03,2.87,0.82
0.26,0.08,-1.12,-6.21,3.11,0.84
0.26,0.08,-1.11,-6.40,2.76,0.73
0.26,0.08,-1.12,-6.18,2.64,0.38
0.26,0.08,-1.12,-6.60,2.64,-0.02
0.25,0.06,-1.11,-7.19,2.27,-0.23
0.26,0.05,-1.12,-8.64,1.86,-0.56
0.25,0.04,-1.11,-10.20,1.31,-0.81
0.25,0.06,-1.10,-11.11,0.85,-0.34
0.24,0.07,-1.11,-11.91,0.37,0.32
0.23,0.07,-1.11,-12.15,0.27,0.82
0.24,0.08,-1.10,-11.82,-0.05,1.11
0.23,0.09,-1.10,-10.99,0.17,1.24
0.24,0.10,-1.11,-10.29,0.32,1.71
0.23,0.09,-1.10,-9.28,0.98,2.17
0.23,0.09,-1.10,-8.31,1.50,2.20
0.23,0.09,-1.10,-7.94,1.76,2.26
0.24,0.09,-1.10,-7.47,1.88,2.43
0.24,0.09,-1.10,-7.19,1.95,2.67
0.25,0.08,-1.10,-6.95,1.69,2.96
0.25,0.07,-1.09,-6.78,1.65,2.92
0.24,0.07,-1.09,-7.02,1.74,2.66
0.24,0.06,-1.09,-7.33,1.82,2.21
0.25,0.07,-1.10,-7.15,2.03,1.73
0.26,0.07,-1.09,-7.50,1.97,1.47
0.26,0.07,-1.10,-7.74,1.63,1.13
0.25,0.06,-1.10,-8.21,0.84,0.63
0.26,0.06,-1.11,-9.28,0.11,0.49
0.26,0.07,-1.11,-9.66,-0.82,0.31
0.25,0.08,-1.10,-9.71,-1.66,0.66
0.24,0.09,-1.10,-9.15,-1.79,0.98
0.23,0.10,-1.10,-8.15,-1.42,1.11
0.22,0.10,-1.10,-7.15,-0.73,1.45
0.22,0.09,-1.09,-6.03,0.21,1.92
0.21,0.08,-1.10,-5.31,1.24,2.23
0.22,0.09,-1.10,-4.73,1.86,2.76
0.23,0.08,-1.09,-4.12,2.61,3.27
0.24,0.08,-1.10,-3.83,2.75,3.54
0.24,0.07,-1.10,-3.59,3.08,3.45
0.24,0.07,-1.10,-3.76,2.75,3.42
0.25,0.07,-1.10,-3.63,2.58,3.28
0.25,0.08,-1.10,-3.68,2.21,2.76
0.27,0.07,-1.10,-3.89,1.63,1.98
0.26,0.07,-1.11,-4.34,1.48,0.99
0.26,0.06,-1.11,-4.85,1.08,0.23
0.26,0.06,-1.11,-5.53,0.58,-0.40
0.26,0.06,-1.12,-6.02,0.29,-0.44
0.25,0.07,-1.09,-6.46,-0.02,-0.08
0.25,0.07,-1.09,-6.11,0.21,0.41
0.24,0.08,-1.10,-5.71,0.79,0.67
0.23,0.09,-1.07,-4.89,1.54,0.99
0.23,0.09,-1.08,-3.98,2.15,1.39
0.24,0.09,-1.08,-3.63,2.81,1.94
0.24,0.09,-1.08,-3.34,3.40,1.79
0.26,0.08,-1.08,-3.33,3.27,2.09
0.26,0.08,-1.08,-3.57,2.76,1.80
0.26,0.08,-1.08,-3.57,2.00,1.47
0.27,0.08,-1.09,-3.73,0.52,1.25
0.27,0.09,-1.08,-3.51,-0.64,1.13
0.26,0.09,-1.10,-3.60,-1.36,0.89
0.26,0.08,-1.10,-3.54,-1.77,0.89
0.25,0.08,-1.10,-3.63,-1.65,0.93
0.25,0.08,-1.10,-4.24,-1.24,0.66
0.25,0.09,-1.11,-4.81,-0.61,0.95
0.25,0.08,-1.12,-5.18,0.23,0.70
0.25,0.09,-1.11,-5.37,1.34,1.10
0.24,0.10,-1.11,-5.37,2.29,1.42
0.25,0.10,-1.11,-5.30,2.78,1.88
0.26,0.09,-1.10,-5.36,3.39,2.06
0.27,0.09,-1.11,-5.44,3.15,2.47
0.28,0.10,-1.10,-5.66,2.29,2.60
0.28,0.08,-1.10,-5.89,1.45,2.53
0.27,0.09,-1.10,-5.98,0.73,2.64
0.28,0.09,-1.10,-6.24,-0.11,2.23
0.26,0.09,-1.10,-6.23,0.17,2.02
0.26,0.08,-1.11,-6.72,0.69,1.51
0.26,0.07,-1.10,-7.34,0.96,1.30
0.26,0.07,-1.10,-7.91,1.40,1.28
0.26,0.07,-1.10,-7.91,1.45,1.13
0.27,0.09,-1.09,-7.89,1.59,1.45
