acc_x,acc_y,acc_z,gyro_x,gyro_y,gyro_z,time
0.279,-0.019,-1.115,-3.237,2.122,-1.542,0
0.284,-0.026,-1.117,-3.115,2.550,-1.573,4048
0.278,-0.020,-1.124,-3.008,2.595,-1.802,8061
0.288,-0.021,-1.124,-2.992,2.992,-1.649,12073
0.288,-0.017,-1.118,-2.947,2.870,-1.756,16084
0.289,-0.021,-1.117,-2.779,2.763,-1.802,20096
0.292,-0.019,-1.113,-3.038,2.641,-1.756,24107
0.294,-0.025,-1.113,-2.855,2.397,-1.557,28117
0.294,-0.018,-1.118,-2.718,2.122,-1.450,32128
0.295,-0.022,-1.125,-2.641,1.939,-1.389,36139
0.295,-0.021,-1.120,-2.580,1.847,-1.160,40150
0.291,-0.022,-1.122,-2.427,1.679,-1.344,44161
0.294,-0.014,-1.116,-2.275,1.435,-1.405,48169
0.292,-0.019,-1.115,-2.336,1.405,-1.679,52180
0.291,-0.020,-1.126,-2.061,1.298,-1.908,56191
0.291,-0.024,-1.122,-1.954,1.145,-1.924,60203
0.294,-0.024,-1.134,-2.168,0.992,-1.863,64214
0.298,-0.033,-1.130,-2.305,0.824,-1.756,68225
0.292,-0.027,-1.121,-2.412,0.855,-1.832,72237
0.288,-0.026,-1.129,-2.702,0.779,-1.710,76248
0.293,-0.028,-1.125,-2.901,0.794,-1.756,80259
0.293,-0.021,-1.135,-2.962,0.794,-1.725,84271
0.284,-0.029,-1.129,-3.115,0.992,-1.924,88282
0.290,-0.025,-1.134,-3.069,1.252,-1.817,92293
0.294,-0.019,-1.131,-3.130,1.573,-1.969,96304
0.293,-0.022,-1.129,-3.267,1.802,-1.954,100315
0.290,-0.016,-1.133,-3.069,1.908,-2.397,104326
0.292,-0.023,-1.124,-3.130,2.458,-2.305,108338
0.286,-0.021,-1.131,-3.053,2.626,-2.687,112349
0.287,-0.017,-1.130,-2.992,3.099,-2.733,116360
0.284,-0.022,-1.126,-2.718,3.191,-2.977,120371
0.294,-0.013,-1.128,-2.718,3.344,-2.901,124382
0.288,-0.011,-1.128,-2.702,3.511,-3.084,128393
0.283,-0.015,-1.143,-2.809,3.771,-2.733,132404
0.281,-0.007,-1.125,-2.550,3.573,-2.870,136415
0.275,-0.013,-1.139,-2.504,3.924,-2.519,140427
0.285,-0.014,-1.127,-2.198,3.802,-2.351,144438
0.285,-0.007,-1.133,-1.908,3.740,-2.305,148448
0.286,-0.005,-1.125,-1.985,3.679,-2.107,152459
0.280,-0.003,-1.125,-1.649,3.710,-1.725,156470
0.283,-0.010,-1.130,-1.634,3.466,-1.496,160481
0.279,-0.012,-1.131,-1.679,3.145,-1.374,164492
0.293,-0.013,-1.128,-1.817,2.916,-1.420,168502
0.293,-0.011,-1.134,-1.939,2.595,-1.344,172513
0.285,-0.015,-1.129,-2.046,2.473,-1.359,176524
0.290,-0.014,-1.133,-2.214,2.168,-1.405,180535
0.283,-0.020,-1.135,-2.382,2.076,-1.542,184546
0.291,-0.012,-1.119,-2.641,1.939,-1.725,188556
0.291,-0.016,-1.127,-2.748,2.000,-1.603,192567
0.285,-0.009,-1.126,-2.779,2.168,-1.786,196579
0.288,-0.014,-1.134,-2.641,2.443,-1.847,200590
0.283,-0.008,-1.126,-2.382,2.489,-1.664,204601
0.287,-0.006,-1.126,-2.153,2.473,-1.420,208613
0.285,-0.009,-1.121,-2.076,2.733,-1.450,212624
0.289,-0.007,-1.124,-1.878,2.656,-0.992,216635
0.282,-0.007,-1.122,-1.573,2.733,-1.008,220646
0.285,-0.013,-1.127,-1.557,2.794,-0.992,224657
0.294,-0.015,-1.125,-1.527,3.038,-0.962,228669
0.287,-0.015,-1.132,-1.649,2.947,-0.931,232688
0.288,-0.014,-1.129,-1.756,3.069,-1.328,236699
0.295,-0.015,-1.126,-1.924,2.779,-1.435,240710
0.298,-0.017,-1.126,-1.954,2.550,-1.420,244721
0.294,-0.017,-1.124,-1.969,2.290,-1.328,248733
0.303,-0.019,-1.128,-2.061,2.000,-1.466,252745
0.304,-0.022,-1.128,-2.183,1.542,-1.573,256756
0.301,-0.025,-1.139,-2.198,1.023,-1.496,260767
0.303,-0.021,-1.136,-2.290,0.565,-1.771,264778
0.301,-0.026,-1.133,-2.473,0.061,-1.771,268791
0.299,-0.022,-1.134,-2.321,-0.275,-1.863,272802
0.301,-0.019,-1.130,-2.458,-0.565,-1.954,276813
0.300,-0.021,-1.139,-2.321,-0.641,-1.924,280824
0.292,-0.021,-1.127,-2.427,-0.870,-1.802,284835
0.286,-0.020,-1.122,-2.656,-0.809,-1.802,288846
0.283,-0.025,-1.126,-2.702,-0.412,-1.817,292856
0.283,-0.025,-1.135,-2.916,-0.183,-1.908,296868
0.282,-0.021,-1.137,-2.962,0.198,-1.908,300878
0.281,-0.018,-1.131,-3.191,0.626,-2.015,304889
0.281,-0.020,-1.124,-3.267,1.221,-2.107,308901
0.280,-0.014,-1.133,-3.206,1.679,-2.092,312914
0.277,-0.022,-1.129,-3.145,1.939,-2.092,316926
0.285,-0.017,-1.130,-3.099,2.565,-2.107,320937
0.284,-0.008,-1.134,-2.931,2.519,-2.260,324949
0.288,-0.014,-1.135,-2.901,2.519,-2.061,328960
0.290,-0.010,-1.132,-2.779,2.305,-2.046,332979
0.295,-0.017,-1.136,-2.718,2.031,-1.863,336990
0.297,-0.009,-1.133,-2.382,1.573,-1.832,341001
0.299,-0.009,-1.124,-2.229,1.145,-1.954,345012
0.295,-0.014,-1.126,-2.183,0.656,-2.260,349023
0.304,-0.015,-1.132,-1.969,0.229,-1.908,353044
0.291,-0.016,-1.132,-2.122,-0.336,-1.985,357055
0.295,-0.022,-1.134,-2.229,-0.702,-2.031,361066
0.293,-0.016,-1.125,-2.504,-0.840,-1.969,365077
0.287,-0.022,-1.125,-2.550,-0.947,-2.122,369088
0.283,-0.015,-1.127,-2.580,-1.069,-2.061,373101
0.281,-0.018,-1.130,-2.672,-0.733,-2.031,377113
0.277,-0.018,-1.132,-2.534,-0.504,-1.863,381123
0.277,-0.016,-1.127,-2.656,-0.290,-2.000,385134
0.281,-0.020,-1.118,-2.550,-0.076,-1.863,389145
0.277,-0.016,-1.131,-2.412,0.412,-2.031,393158
0.271,-0.019,-1.120,-2.366,0.580,-2.000,397169
0.272,-0.015,-1.116,-2.244,0.947,-2.031,401180
0.275,-0.017,-1.119,-2.351,1.282,-2.061,405191
0.279,-0.014,-1.121,-2.351,1.420,-2.107,409202
0.271,-0.017,-1.121,-2.198,1.435,-2.305,413223
0.266,-0.015,-1.116,-2.290,1.756,-2.305,417234
0.270,-0.021,-1.119,-2.061,1.466,-2.473,421246
0.278,-0.020,-1.114,-2.092,1.206,-2.458,425257
0.281,-0.016,-1.124,-2.168,0.672,-2.626,429268
0.285,-0.022,-1.127,-2.412,-0.015,-2.550,433289
0.285,-0.012,-1.115,-2.229,-0.962,-2.595,437301
0.287,-0.014,-1.125,-2.427,-1.649,-2.382,441312
0.286,-0.016,-1.130,-2.305,-2.656,-2.260,445323
0.284,-0.016,-1.141,-2.244,-3.405,-2.733,449335
0.283,-0.021,-1.127,-2.183,-3.985,-2.382,453346
0.280,-0.023,-1.131,-2.092,-4.427,-2.565,457357
0.283,-0.025,-1.137,-2.397,-4.763,-2.214,461368
0.281,-0.026,-1.139,-2.534,-4.870,-1.695,465379
0.277,-0.032,-1.138,-2.550,-4.702,-1.496,469390
0.263,-0.030,-1.130,-2.718,-4.397,-1.115,473401
0.276,-0.032,-1.140,-2.779,-4.046,-1.099,477413
0.271,-0.029,-1.138,-3.069,-3.282,-0.916,481423
0.269,-0.026,-1.133,-3.099,-2.473,-0.687,485434
0.271,-0.028,-1.142,-3.328,-1.786,-0.748,489445
0.274,-0.031,-1.134,-3.313,-1.160,-0.947,493457
0.274,-0.028,-1.137,-3.725,-0.947,-1.038,497467
0.276,-0.028,-1.136,-3.771,-0.779,-1.145,501478
0.288,-0.034,-1.145,-4.076,-0.809,-0.901,505489
0.293,-0.036,-1.141,-4.229,-0.809,-0.733,509500
0.293,-0.033,-1.148,-4.443,-0.840,-0.687,513510
0.304,-0.031,-1.140,-4.672,-0.962,-0.687,517521
0.295,-0.032,-1.130,-4.809,-1.176,-0.595,521532
0.302,-0.031,-1.134,-4.931,-1.069,-0.718,525543
0.295,-0.027,-1.135,-4.641,-1.160,-0.580,529554
0.298,-0.029,-1.129,-4.672,-1.267,-0.366,533565
0.295,-0.022,-1.136,-4.656,-1.176,-0.397,537576
0.292,-0.023,-1.132,-4.489,-0.901,0.031,541587
0.297,-0.019,-1.128,-4.427,-0.733,0.015,545598
0.292,-0.025,-1.121,-4.366,-0.504,0.244,549609
0.286,-0.017,-1.121,-4.000,-0.260,0.397,553629
0.296,-0.019,-1.125,-3.985,-0.107,0.214,557640
0.304,-0.020,-1.121,-3.908,-0.244,0.107,561651
0.297,-0.023,-1.129,-3.954,-0.321,0.183,565662
0.302,-0.022,-1.117,-4.061,-0.580,-0.137,569673
0.305,-0.024,-1.127,-4.031,-0.794,-0.382,573693
0.304,-0.027,-1.126,-4.336,-0.977,-0.656,577704
0.305,-0.023,-1.115,-4.382,-1.252,-0.733,581715
0.300,-0.024,-1.122,-4.382,-1.313,-0.947,585726
0.294,-0.022,-1.110,-4.534,-1.420,-0.840,589737
0.297,-0.031,-1.110,-4.916,-1.160,-1.145,593749
0.292,-0.037,-1.110,-4.779,-1.084,-1.176,597759
0.296,-0.033,-1.117,-4.855,-0.992,-1.588,601771
0.295,-0.042,-1.122,-4.824,-0.885,-1.771,605781
0.297,-0.044,-1.123,-4.733,-0.748,-1.985,609792
0.300,-0.048,-1.117,-4.519,-0.550,-2.321,613804
0.297,-0.053,-1.120,-4.504,-0.687,-2.351,617815
0.302,-0.064,-1.125,-4.305,-0.809,-2.824,621826
0.300,-0.081,-1.134,-4.198,-0.885,-3.130,625838
0.305,-0.100,-1.146,-3.878,-1.359,-3.496,629849
0.309,-0.120,-1.151,-3.679,-1.847,-3.969,633869
0.304,-0.133,-1.151,-3.618,-2.397,-4.290,637880
0.300,-0.162,-1.160,-3.496,-3.176,-4.641,641892
0.294,-0.183,-1.172,-3.542,-3.710,-4.901,645903
0.282,-0.219,-1.164,-3.511,-4.443,-5.282,649917
0.282,-0.238,-1.172,-3.557,-5.160,-5.802,653928
0.271,-0.264,-1.174,-3.313,-5.939,-5.740,657939
0.269,-0.285,-1.190,-2.947,-6.916,-6.107,661950
0.267,-0.307,-1.206,-2.382,-7.924,-6.443,665961
0.268,-0.330,-1.212,-2.031,-9.313,-6.519,669972
0.263,-0.355,-1.221,-1.435,-10.809,-6.305,673983
0.254,-0.382,-1.237,-1.344,-12.534,-6.412,677995
0.250,-0.403,-1.238,-1.298,-14.534,-6.153,682006
0.239,-0.430,-1.241,-1.664,-16.061,-6.656,686017
0.233,-0.453,-1.250,-2.809,-17.496,-7.145,690028
0.213,-0.464,-1.251,-4.015,-19.160,-7.573,694039
0.200,-0.477,-1.259,-5.130,-19.985,-8.214,698050
0.189,-0.483,-1.269,-5.802,-20.244,-8.504,702061
0.178,-0.483,-1.257,-6.656,-20.092,-8.580,706072
0.180,-0.497,-1.268,-8.244,-19.756,-8.290,710084
0.180,-0.506,-1.261,-10.183,-19.466,-8.305,714095
0.170,-0.524,-1.258,-11.924,-18.779,-8.290,718106
0.172,-0.527,-1.251,-13.221,-17.893,-8.198,722118
0.166,-0.523,-1.251,-14.229,-16.580,-8.076,726128
0.157,-0.510,-1.247,-14.595,-15.328,-7.985,730139
0.167,-0.496,-1.241,-15.130,-14.122,-8.076,734150
0.185,-0.495,-1.237,-15.405,-13.130,-8.229,738157
0.191,-0.492,-1.225,-15.618,-12.031,-8.321,742168
0.197,-0.499,-1.216,-15.481,-11.420,-8.382,746179
0.203,-0.488,-1.210,-15.237,-10.794,-8.366,750190
0.210,-0.478,-1.208,-14.519,-10.580,-8.443,754201
0.219,-0.465,-1.194,-14.183,-10.427,-8.458,758213
0.241,-0.456,-1.192,-14.107,-11.008,-8.809,762224
0.256,-0.465,-1.181,-14.351,-11.969,-9.542,766236
0.270,-0.456,-1.185,-15.145,-13.298,-10.336,770247
0.283,-0.444,-1.196,-15.802,-15.588,-11.099,774258
0.290,-0.419,-1.171,-16.702,-18.351,-11.817,778270
0.290,-0.397,-1.173,-17.435,-21.130,-12.702,782281
0.285,-0.367,-1.163,-18.260,-24.137,-13.618,786292
0.281,-0.343,-1.153,-18.931,-26.702,-14.550,790303
0.268,-0.320,-1.155,-19.298,-29.099,-15.679,794314
0.256,-0.302,-1.160,-19.649,-31.237,-16.779,798326
0.244,-0.273,-1.156,-19.725,-33.008,-17.664,802336
0.246,-0.245,-1.154,-19.878,-34.382,-17.939,806347
0.217,-0.221,-1.147,-20.229,-35.099,-17.649,810358
0.208,-0.194,-1.139,-20.550,-34.748,-17.053,814369
0.201,-0.170,-1.129,-21.130,-34.748,-17.069,818380
0.175,-0.152,-1.126,-21.160,-33.847,-17.053,822391
0.145,-0.114,-1.111,-20.672,-31.374,-16.458,826402
0.135,-0.074,-1.108,-20.000,-28.366,-15.908,830413
0.117,-0.043,-1.100,-18.626,-24.779,-15.450,834424
0.102,-0.020,-1.089,-17.069,-20.107,-14.473,838434
0.102,0.002,-1.081,-15.405,-15.725,-12.962,842445
0.099,0.017,-1.069,-13.634,-11.145,-10.962,846456
0.111,0.041,-1.060,-11.756,-7.008,-8.702,850467
0.104,0.064,-1.046,-9.435,-1.435,-5.802,854478
0.119,0.088,-1.061,-6.809,2.229,-3.802,858489
0.136,0.109,-1.062,-4.305,5.802,-2.733,862500
0.151,0.124,-1.073,-1.878,9.328,-1.863,866511
0.165,0.148,-1.091,-0.229,10.931,-1.863,870522
0.196,0.156,-1.097,1.099,12.137,-2.550,874533
0.216,0.158,-1.105,1.695,12.504,-3.206,878545
0.226,0.164,-1.104,1.740,11.511,-3.710,882555
0.256,0.170,-1.114,1.191,9.420,-3.450,886566
0.282,0.174,-1.115,0.458,6.351,-2.748,890577
0.296,0.185,-1.113,-0.443,3.328,-1.084,894588
0.309,0.195,-1.112,-1.359,-0.275,1.099,898599
0.320,0.201,-1.111,-2.076,-4.183,3.725,902610
0.323,0.206,-1.102,-2.641,-8.153,6.580,906621
0.336,0.218,-1.098,-3.450,-11.664,9.099,910632
0.326,0.216,-1.102,-4.504,-14.336,11.374,914643
0.315,0.241,-1.085,-5.450,-15.954,12.931,918654
0.293,0.251,-1.068,-6.092,-16.000,13.710,922674
0.264,0.266,-1.065,-6.183,-15.069,13.771,926685
0.240,0.292,-1.071,-5.389,-12.779,13.832,930696
0.226,0.314,-1.068,-3.252,-9.954,13.573,934707
0.214,0.330,-1.064,-0.687,-5.817,13.695,938719
0.209,0.342,-1.057,2.321,-0.870,14.046,942729
0.198,0.350,-1.066,5.282,4.168,14.458,946740
0.196,0.355,-1.072,7.817,8.977,14.641,950751
0.198,0.369,-1.081,10.458,13.069,14.275,954762
0.216,0.368,-1.092,12.504,15.802,13.023,958775
0.234,0.355,-1.099,13.618,17.374,11.359,962786
0.239,0.348,-1.103,14.275,18.992,10.504,966798
0.248,0.341,-1.110,14.321,20.046,10.122,970809
0.271,0.336,-1.099,13.649,20.321,10.031,974820
0.281,0.322,-1.103,12.076,19.603,10.366,978831
0.300,0.315,-1.098,10.656,18.931,10.458,982842
0.308,0.313,-1.093,8.885,17.939,10.198,986853
0.316,0.313,-1.100,7.084,16.718,10.397,990864
0.308,0.321,-1.073,5.466,15.863,10.351,994875
0.300,0.323,-1.075,4.260,15.603,10.092,998887
0.288,0.334,-1.053,3.649,17.084,9.740,1002899
0.287,0.333,-1.060,3.191,14.870,9.649,1006910
0.298,0.343,-1.060,3.664,15.985,9.252,1010921
0.282,0.355,-1.063,4.504,17.038,8.687,1014932
0.279,0.357,-1.071,5.664,17.023,8.153,1018943
0.286,0.360,-1.072,7.191,17.145,6.840,1022963
0.285,0.353,-1.081,8.718,16.885,6.107,1026975
0.294,0.347,-1.098,10.260,15.725,5.313,1030986
0.300,0.336,-1.104,11.542,14.260,5.298,1034997
0.301,0.331,-1.116,12.733,12.275,5.389,1039008
0.301,0.322,-1.119,13.237,10.198,5.588,1043028
0.300,0.300,-1.121,13.405,7.832,5.679,1047040
0.293,0.291,-1.135,13.374,5.863,5.954,1051050
0.285,0.270,-1.139,12.718,4.443,5.893,1055061
0.279,0.252,-1.130,11.832,3.588,5.573,1059072
0.261,0.240,-1.142,10.275,3.405,4.626,1063090
0.250,0.227,-1.128,8.565,3.588,3.634,1067101
0.237,0.214,-1.132,6.351,4.214,2.122,1071112
0.225,0.197,-1.130,3.985,5.069,0.611,1075123
0.223,0.191,-1.133,1.405,6.244,-0.672,1079134
0.224,0.189,-1.128,-0.748,7.603,-1.420,1083144
0.219,0.188,-1.122,-2.901,8.809,-1.664,1087156
0.212,0.196,-1.115,-4.397,9.511,-1.740,1091166
0.222,0.187,-1.103,-5.771,11.176,-1.817,1095177
0.224,0.203,-1.109,-6.611,12.275,-2.229,1099189
0.221,0.212,-1.095,-7.267,12.382,-2.824,1103209
0.220,0.206,-1.094,-7.221,12.794,-3.527,1107220
0.218,0.203,-1.096,-6.641,12.931,-4.015,1111231
0.222,0.205,-1.097,-5.802,12.794,-4.275,1115242
0.237,0.201,-1.096,-4.931,12.046,-4.458,1119253
0.237,0.198,-1.096,-4.168,10.885,-4.397,1123274
0.246,0.168,-1.095,-3.618,9.344,-4.595,1127285
0.251,0.157,-1.102,-3.542,7.496,-4.092,1131296
0.258,0.140,-1.111,-3.542,5.359,-2.794,1135308
0.251,0.124,-1.111,-4.061,3.939,-1.756,1139319
0.255,0.115,-1.099,-4.580,2.229,-0.107,1143337
0.239,0.101,-1.111,-5.038,1.099,1.481,1147347
0.233,0.092,-1.103,-5.420,0.458,2.809,1151358
0.226,0.096,-1.111,-5.511,0.168,3.725,1155369
0.238,0.092,-1.106,-5.374,0.443,5.023,1159380
0.233,0.078,-1.110,-5.359,0.885,6.031,1163391
0.230,0.071,-1.112,-4.885,1.588,6.763,1167402
0.250,0.061,-1.115,-4.397,2.046,7.069,1171413
0.271,0.057,-1.122,-3.847,2.168,6.763,1175424
0.286,0.054,-1.123,-3.496,2.076,6.275,1179435
0.302,0.041,-1.131,-3.282,2.015,5.740,1183446
0.305,0.026,-1.147,-3.252,1.679,4.275,1187458
0.307,0.016,-1.146,-3.634,1.115,3.252,1191468
0.317,0.006,-1.146,-3.985,0.519,1.985,1195480
0.318,-0.001,-1.152,-4.412,0.000,0.763,1199491
0.321,-0.005,-1.148,-5.282,-0.550,-0.351,1203501
0.312,-0.011,-1.153,-5.908,-0.947,-1.160,1207512
0.311,-0.006,-1.155,-6.489,-1.282,-1.740,1211523
0.306,-0.008,-1.148,-6.763,-1.221,-1.603,1215534
0.306,-0.008,-1.150,-7.008,-1.145,-1.817,1219545
0.303,-0.005,-1.144,-7.191,-0.901,-2.061,1223556
0.299,-0.001,-1.151,-6.962,-0.809,-2.061,1227568
0.281,-0.008,-1.147,-6.718,-0.489,-1.985,1231579
0.277,-0.004,-1.146,-6.458,-0.321,-2.031,1235591
0.274,-0.009,-1.142,-5.847,0.336,-2.137,1239602
0.265,-0.009,-1.139,-5.542,0.718,-2.260,1243622
0.260,-0.010,-1.138,-5.099,1.466,-2.397,1247633
0.258,-0.009,-1.143,-4.534,1.725,-2.977,1251644
0.269,-0.010,-1.144,-4.427,1.786,-3.252,1255655
0.264,-0.019,-1.148,-4.137,1.695,-3.450,1259666
0.269,-0.018,-1.145,-3.847,1.466,-3.206,1263687
0.274,-0.023,-1.150,-3.695,1.023,-2.885,1267698
0.273,-0.025,-1.159,-3.756,0.672,-2.931,1271710
0.274,-0.023,-1.154,-3.679,0.489,-2.809,1275721
0.271,-0.030,-1.159,-3.603,0.122,-3.344,1279732
0.275,-0.022,-1.164,-3.588,-0.260,-3.557,1283744
0.275,-0.031,-1.160,-3.725,-0.458,-4.351,1287754
0.282,-0.031,-1.164,-3.832,-1.008,-5.084,1291765
0.275,-0.029,-1.165,-3.939,-1.405,-5.511,1295776
0.269,-0.022,-1.161,-4.137,-1.527,-5.802,1299787
0.269,-0.014,-1.166,-4.168,-1.893,-5.695,1303800
0.266,-0.014,-1.158,-4.031,-1.924,-5.740,1307811
0.253,-0.012,-1.168,-3.969,-1.969,-5.908,1311821
0.251,-0.013,-1.172,-3.802,-2.107,-6.336,1315832
0.242,-0.012,-1.172,-3.832,-1.954,-6.427,1319843
0.243,-0.007,-1.168,-3.634,-1.756,-6.626,1323864
0.242,-0.009,-1.158,-3.313,-1.634,-6.214,1327875
0.237,-0.009,-1.171,-3.282,-1.252,-6.214,1331887
0.237,-0.012,-1.166,-3.496,-1.313,-5.908,1335897
0.230,-0.014,-1.168,-3.710,-1.115,-5.374,1339917
0.223,-0.012,-1.163,-3.893,-0.550,-4.947,1343928
0.224,-0.011,-1.164,-4.076,-0.229,-4.611,1347939
0.222,-0.014,-1.154,-4.412,0.275,-4.412,1351950
0.224,-0.011,-1.151,-4.443,0.321,-3.939,1355961
0.231,-0.006,-1.150,-4.412,0.595,-3.695,1359972
0.227,0.002,-1.155,-4.366,0.962,-3.160,1363983
0.229,-0.001,-1.143,-4.321,0.916,-2.672,1367995
0.235,0.001,-1.145,-4.229,0.885,-2.305,1372006
0.235,0.000,-1.137,-4.000,0.519,-2.321,1376017
0.231,0.009,-1.139,-3.817,0.321,-2.366,1380028
0.235,0.005,-1.145,-3.817,-0.076,-2.779,1384039
0.237,-0.001,-1.141,-3.679,-1.008,-2.901,1388050
0.239,0.005,-1.145,-3.771,-1.618,-3.008,1392061
0.241,-0.000,-1.145,-3.954,-2.672,-2.733,1396072
0.243,-0.003,-1.144,-4.305,-3.756,-2.718,1400084
0.238,-0.007,-1.137,-4.565,-4.458,-2.260,1404095
0.233,-0.010,-1.157,-4.947,-4.901,-1.893,1408106
0.231,-0.006,-1.148,-5.481,-5.023,-1.786,1412118
0.222,-0.002,-1.156,-5.878,-5.145,-1.969,1416128
0.229,-0.011,-1.164,-6.122,-5.115,-2.107,1420139
0.221,-0.007,-1.148,-6.748,-4.931,-2.489,1424150
0.228,-0.011,-1.141,-7.267,-4.321,-2.672,1428157
0.225,-0.006,-1.145,-7.847,-3.313,-2.641,1432168
0.222,-0.012,-1.147,-8.137,-2.565,-2.550,1436179
0.225,-0.008,-1.140,-8.290,-1.649,-2.672,1440190
0.228,-0.002,-1.139,-8.366,-0.840,-2.443,1444201
0.222,0.005,-1.135,-8.244,0.015,-2.137,1448213
0.243,0.002,-1.136,-7.954,0.870,-1.649,1452224
0.235,-0.004,-1.141,-7.695,1.313,-0.885,1456236
0.241,0.002,-1.139,-7.328,1.725,-0.824,1460247
0.256,0.006,-1.137,-7.130,1.832,-0.656,1464258
0.246,-0.000,-1.138,-6.809,1.924,-0.733,1468270
0.249,0.005,-1.141,-6.458,1.817,-0.855,1472281
0.252,0.006,-1.147,-6.168,1.664,-0.931,1476292
0.260,0.003,-1.153,-5.893,1.344,-1.252,1480303
0.258,-0.007,-1.142,-5.664,0.992,-0.962,1484314
0.270,-0.007,-1.146,-5.649,0.580,-0.718,1488326
0.265,-0.013,-1.153,-5.740,0.122,-0.611,1492336
0.260,-0.016,-1.146,-6.168,-0.519,-0.351,1496347
0.255,-0.010,-1.142,-6.351,-0.809,-0.366,1500358
0.257,-0.015,-1.141,-6.718,-1.176,-0.351,1504369
0.250,-0.010,-1.133,-6.931,-1.099,-0.305,1508380
0.255,-0.016,-1.131,-7.496,-0.885,0.092,1512391
0.244,-0.016,-1.133,-7.634,-0.763,-0.061,1516402
0.248,-0.012,-1.134,-8.198,-0.427,0.244,1520413
0.237,-0.011,-1.133,-8.351,0.122,0.290,1524424
0.238,-0.005,-1.128,-8.336,0.794,0.305,1528434
0.245,0.000,-1.126,-8.183,1.527,0.214,1532445
0.245,-0.003,-1.133,-7.969,2.107,0.122,1536456
0.246,0.001,-1.127,-7.878,2.687,-0.260,1540467
0.245,0.006,-1.133,-7.847,3.145,-0.336,1544478
0.252,-0.001,-1.126,-7.649,3.328,-0.168,1548489
0.255,0.001,-1.131,-7.832,3.649,-0.153,1552500
0.253,0.002,-1.119,-7.695,3.679,-0.443,1556511
0.250,0.003,-1.138,-7.557,3.664,-0.565,1560522
0.260,0.003,-1.136,-7.313,3.664,-0.962,1564533
0.260,0.006,-1.132,-7.130,3.298,-1.359,1568545
0.258,0.005,-1.132,-7.206,3.145,-1.603,1572555
0.265,-0.003,-1.124,-7.145,2.840,-1.527,1576566
0.267,-0.003,-1.134,-7.328,2.595,-1.664,1580577
0.274,-0.004,-1.133,-7.435,2.198,-1.481,1584588
0.270,-0.004,-1.128,-7.588,1.786,-1.511,1588599
0.270,-0.006,-1.124,-7.740,1.557,-1.649,1592610
0.261,-0.003,-1.122,-8.015,1.221,-1.557,1596621
0.271,0.002,-1.121,-7.756,0.809,-1.710,1600632
0.265,0.006,-1.121,-7.588,0.855,-1.817,1604643
0.261,0.009,-1.124,-7.298,0.626,-1.878,1608654
0.259,0.012,-1.128,-7.053,0.534,-1.618,1612674
0.256,0.009,-1.119,-6.626,0.794,-1.710,1616685
0.256,0.015,-1.120,-6.244,0.779,-1.649,1620696
0.246,0.012,-1.119,-6.046,0.748,-1.420,1624707
0.247,0.019,-1.122,-5.802,0.702,-1.298,1628719
0.249,0.016,-1.120,-5.481,0.855,-1.237,1632729
0.246,0.015,-1.119,-5.069,0.748,-1.374,1636740
0.238,0.017,-1.128,-4.885,0.672,-1.145,1640751
0.240,0.015,-1.127,-4.702,0.718,-0.931,1644762
0.249,0.013,-1.139,-4.504,0.443,-0.824,1648775
0.241,0.017,-1.127,-4.534,0.351,-0.672,1652786
0.236,0.017,-1.134,-4.351,0.137,-0.336,1656798
0.235,0.011,-1.126,-4.214,0.351,-0.076,1660809
0.240,0.012,-1.143,-4.122,0.275,0.092,1664820
0.233,0.010,-1.133,-3.969,0.565,0.015,1668831
0.241,0.013,-1.135,-3.908,0.916,0.000,1672842
0.231,0.008,-1.146,-3.847,1.511,-0.275,1676853
0.238,0.010,-1.137,-3.954,1.756,-0.489,1680864
0.238,0.008,-1.133,-4.229,2.427,-0.824,1684875
0.243,0.008,-1.140,-4.260,2.885,-0.870,1688887
0.240,0.010,-1.138,-4.351,3.481,-0.901,1692899
0.247,0.004,-1.134,-4.519,3.893,-0.992,1696910
0.248,0.015,-1.144,-4.534,4.443,-0.885,1700921
0.259,0.012,-1.135,-4.702,4.672,-0.870,1704932
0.256,0.008,-1.139,-4.794,4.611,-0.870,1708943
0.262,0.008,-1.135,-4.824,4.641,-0.702,1712963
0.261,0.012,-1.136,-4.763,4.519,-0.870,1716975
0.259,0.013,-1.138,-4.656,4.595,-0.702,1720986
0.257,0.009,-1.139,-4.336,4.702,-0.992,1724997
0.260,0.014,-1.137,-4.183,4.550,-1.130,1729008
0.260,0.018,-1.137,-3.802,4.122,-1.160,1733028
0.261,0.019,-1.141,-3.557,3.756,-1.282,1737040
0.265,0.018,-1.129,-3.496,3.267,-1.450,1741050
0.269,0.016,-1.132,-3.328,2.580,-1.649,1745061
0.271,0.014,-1.140,-3.344,2.122,-1.634,1749072
0.266,0.009,-1.142,-3.053,1.573,-1.740,1753090
0.253,0.016,-1.134,-3.099,1.282,-1.893,1757101
0.254,0.014,-1.127,-2.992,1.496,-1.954,1761112
0.250,0.017,-1.129,-3.130,1.710,-1.863,1765123
0.240,0.015,-1.130,-3.084,2.229,-1.893,1769134
0.238,0.012,-1.129,-2.962,2.656,-1.725,1773144
0.238,0.014,-1.129,-2.794,3.115,-1.802,1777156
0.244,0.015,-1.118,-2.779,3.252,-1.725,1781166
0.244,0.014,-1.136,-2.595,3.435,-1.679,1785177
0.250,0.017,-1.129,-2.824,3.344,-1.618,1789189
0.252,0.018,-1.131,-2.626,3.084,-1.450,1793209
0.262,0.014,-1.130,-2.855,2.534,-1.756,1797220
0.257,0.020,-1.130,-2.366,1.817,-2.031,1801231
0.261,0.021,-1.134,-2.382,1.069,-2.198,1805242
0.259,0.021,-1.126,-2.122,0.321,-2.122,1809253
0.253,0.015,-1.125,-1.924,0.092,-1.710,1813274
0.253,0.020,-1.130,-1.802,-0.137,-1.863,1817285
0.243,0.017,-1.127,-1.695,0.000,-1.542,1821296
0.232,0.015,-1.128,-1.588,0.229,-1.527,1825308
0.229,0.020,-1.129,-1.710,0.840,-1.603,1829319
0.234,0.013,-1.140,-1.435,1.405,-1.450,1833337
0.226,0.014,-1.141,-1.710,1.908,-1.160,1837347
0.228,0.016,-1.138,-1.664,2.473,-0.595,1841358
0.236,0.014,-1.132,-1.618,3.038,-0.183,1845369
0.237,0.021,-1.135,-1.481,3.008,0.015,1849380
0.244,0.019,-1.146,-1.481,3.038,0.214,1853391
0.255,0.019,-1.144,-1.328,2.840,0.351,1857402
0.257,0.018,-1.143,-1.267,2.504,0.504,1861413
0.263,0.016,-1.139,-1.252,2.046,0.260,1865424
0.260,0.017,-1.141,-1.389,1.618,0.168,1869435
0.262,0.009,-1.138,-1.557,1.115,-0.061,1873446
0.263,0.012,-1.139,-1.557,0.901,-0.061,1877458
0.257,0.016,-1.139,-1.832,0.595,-0.168,1881468
0.257,0.007,-1.139,-2.061,0.443,-0.290,1885480
0.253,0.013,-1.144,-2.260,0.198,-0.092,1889491
0.248,0.012,-1.140,-2.489,0.260,-0.137,1893501
0.249,0.013,-1.139,-2.565,0.779,-0.244,1897512
0.251,0.013,-1.137,-2.611,0.916,-0.198,1901523
0.248,0.016,-1.144,-2.763,1.069,-0.153,1905534
0.246,0.014,-1.144,-2.687,1.344,-0.382,1909545
0.249,0.013,-1.145,-2.718,1.725,-0.443,1913556
0.250,0.012,-1.139,-2.947,1.740,-0.443,1917568
0.249,0.016,-1.138,-2.992,1.649,-0.382,1921579
0.244,0.010,-1.146,-3.115,1.664,-0.504,1925591
0.251,0.013,-1.143,-2.992,1.756,-0.397,1929602
0.245,0.021,-1.142,-2.962,1.695,-0.504,1933622
0.249,0.022,-1.143,-2.641,1.405,-0.076,1937633
0.253,0.018,-1.143,-2.611,1.466,0.137,1941644
0.257,0.021,-1.139,-2.321,1.160,0.641,1945655
0.259,0.025,-1.142,-2.137,1.084,0.931,1949666
0.257,0.027,-1.146,-1.679,1.328,1.130,1953687
0.249,0.020,-1.140,-1.298,1.298,1.374,1957698
0.251,0.012,-1.140,-1.237,1.374,1.481,1961710
0.254,0.014,-1.136,-1.084,1.481,1.542,1965721
0.257,0.016,-1.140,-1.069,1.527,1.435,1969732
0.253,0.010,-1.135,-1.023,1.695,1.679,1973744
0.242,0.020,-1.140,-0.794,1.802,1.618,1977754
0.254,0.016,-1.143,-0.687,1.954,1.725,1981765
0.255,0.016,-1.146,-0.580,1.985,1.679,1985776
0.263,0.010,-1.154,-0.565,1.969,1.679,1989787
0.259,0.011,-1.153,-0.763,1.924,1.634,1993800
0.255,0.004,-1.158,-1.099,2.107,1.221,1997811
0.261,0.001,-1.162,-1.298,1.771,0.855,2001822
