acc_x,acc_y,acc_z,gyro_x,gyro_y,gyro_z,time
0.201,0.048,-1.119,-6.504,1.542,-0.336,821973066
0.205,0.056,-1.114,-6.718,1.267,0.061,821977097
0.205,0.053,-1.109,-6.595,1.084,0.031,821981107
0.202,0.062,-1.101,-6.366,0.977,0.260,821985118
0.201,0.070,-1.102,-6.000,0.870,0.290,821989127
0.197,0.072,-1.096,-5.740,0.962,0.824,821993137
0.193,0.067,-1.102,-5.557,0.992,0.687,821997146
0.195,0.064,-1.098,-5.466,0.977,1.023,822001157
0.204,0.067,-1.102,-5.405,0.931,1.053,822005167
0.212,0.070,-1.108,-5.450,1.191,1.221,822009176
0.201,0.062,-1.102,-5.389,1.374,1.359,822013186
0.202,0.068,-1.094,-5.924,1.435,1.267,822017196
0.206,0.061,-1.094,-5.802,2.107,1.527,822021206
0.208,0.062,-1.105,-5.954,2.107,1.389,822025217
0.207,0.066,-1.106,-6.122,2.473,1.603,822029226
0.210,0.071,-1.098,-5.954,2.702,1.634,822033236
0.213,0.075,-1.096,-5.756,2.611,1.710,822037245
0.216,0.062,-1.104,-5.420,2.656,1.542,822041255
0.205,0.068,-1.104,-4.885,2.718,1.527,822045265
0.214,0.075,-1.094,-4.321,2.931,1.435,822049275
0.219,0.068,-1.093,-4.015,2.992,1.298,822053285
0.218,0.071,-1.089,-3.664,2.779,1.405,822057294
0.221,0.067,-1.094,-3.649,3.084,1.557,822061305
0.213,0.062,-1.099,-4.031,3.023,1.221,822065315
0.229,0.067,-1.094,-4.092,2.580,1.099,822069325
0.228,0.060,-1.102,-4.382,2.321,0.916,822073335
0.231,0.062,-1.092,-4.580,1.969,0.458,822077345
0.228,0.066,-1.087,-4.901,1.634,0.458,822081355
0.219,0.071,-1.097,-5.252,1.374,0.107,822085365
0.223,0.076,-1.091,-5.603,1.374,0.031,822089375
0.214,0.074,-1.084,-5.863,1.389,-0.076,822093385
0.211,0.075,-1.083,-5.786,1.740,-0.214,822097395
0.207,0.080,-1.089,-5.573,2.107,-0.198,822101405
0.209,0.085,-1.079,-5.466,2.427,-0.351,822105416
0.203,0.085,-1.076,-5.084,2.473,-0.611,822109426
0.214,0.087,-1.085,-4.534,2.427,-0.183,822113435
0.200,0.088,-1.074,-3.878,2.763,0.061,822117445
0.209,0.085,-1.091,-3.634,2.611,0.519,822121455
0.202,0.082,-1.087,-3.328,2.229,0.809,822125464
0.206,0.080,-1.091,-2.656,2.107,0.885,822129474
0.220,0.070,-1.093,-2.565,1.664,0.947,822133484
0.219,0.067,-1.107,-2.580,0.931,1.160,822137494
0.213,0.065,-1.103,-2.351,1.038,0.870,822141503
0.214,0.060,-1.100,-2.656,0.443,1.084,822145513
0.211,0.064,-1.112,-2.748,0.672,1.206,822149523
0.208,0.062,-1.111,-2.824,0.275,1.038,822153533
0.209,0.054,-1.114,-3.359,0.824,1.053,822157543
0.209,0.051,-1.114,-3.649,1.267,0.870,822161553
0.211,0.050,-1.115,-4.153,1.710,0.885,822165563
0.217,0.052,-1.113,-4.519,1.893,0.595,822169573
0.219,0.053,-1.107,-5.221,2.305,0.534,822173584
0.219,0.047,-1.116,-5.542,2.290,0.489,822177593
0.213,0.045,-1.104,-5.618,2.718,0.336,822181599
0.215,0.049,-1.105,-5.679,2.870,0.107,822185608
0.219,0.048,-1.104,-5.420,2.840,0.046,822189618
0.225,0.060,-1.099,-5.160,2.855,-0.153,822193628
0.216,0.055,-1.091,-5.115,2.962,-0.183,822197638
0.212,0.057,-1.090,-5.115,2.687,-0.275,822201648
0.216,0.047,-1.103,-5.099,2.656,-0.321,822205657
0.225,0.053,-1.099,-5.084,2.290,-0.733,822209668
0.211,0.058,-1.093,-5.023,2.382,-0.672,822213677
0.212,0.055,-1.101,-4.626,2.366,-0.687,822217687
0.216,0.052,-1.092,-4.565,1.893,-1.008,822221698
0.213,0.049,-1.100,-4.916,1.817,-1.191,822225718
0.209,0.058,-1.089,-4.824,1.481,-1.069,822229727
0.203,0.060,-1.083,-4.443,1.847,-0.641,822233737
0.206,0.052,-1.090,-4.580,1.756,-0.611,822237746
0.203,0.054,-1.076,-4.168,1.573,-0.641,822241757
0.201,0.056,-1.091,-3.969,1.740,-0.656,822245767
0.204,0.054,-1.095,-4.000,1.924,-0.550,822249777
0.208,0.052,-1.080,-4.351,2.031,-0.840,822253787
0.210,0.053,-1.089,-4.519,2.031,-0.672,822257797
0.203,0.051,-1.083,-4.641,2.046,-0.611,822261802
0.201,0.057,-1.082,-4.901,2.046,-0.550,822265812
0.209,0.058,-1.081,-5.023,2.260,-0.473,822269821
0.203,0.063,-1.072,-5.008,2.260,-0.611,822273831
0.202,0.060,-1.064,-4.763,2.611,-0.763,822277841
0.202,0.063,-1.062,-4.702,2.794,-0.840,822281851
0.201,0.062,-1.072,-4.641,2.885,-0.290,822285861
0.200,0.060,-1.073,-4.351,2.809,-0.275,822289870
0.200,0.063,-1.066,-4.336,3.206,-0.473,822293879
0.204,0.061,-1.070,-3.832,3.099,-0.137,822297889
0.202,0.064,-1.070,-3.435,2.763,-0.244,822301899
0.205,0.059,-1.074,-2.977,2.153,0.061,822305909
0.207,0.059,-1.071,-2.824,1.893,0.198,822309919
0.207,0.049,-1.075,-3.069,1.664,0.168,822313929
0.214,0.061,-1.068,-2.718,1.634,0.183,822317939
0.212,0.061,-1.069,-3.038,1.481,0.351,822321949
0.198,0.060,-1.066,-3.267,1.573,0.504,822325960
0.204,0.060,-1.067,-3.344,1.954,0.290,822329970
0.196,0.063,-1.060,-3.771,1.924,0.260,822333980
0.200,0.058,-1.048,-3.817,2.519,0.397,822337990
0.198,0.057,-1.059,-4.153,3.420,0.336,822342000
0.197,0.062,-1.065,-4.076,3.679,0.427,822346020
0.199,0.068,-1.054,-4.260,4.321,0.382,822350030
0.196,0.062,-1.052,-4.397,4.412,0.656,822354040
0.201,0.061,-1.061,-4.687,4.687,0.305,822358050
0.204,0.058,-1.065,-5.313,5.115,-0.183,822362059
0.207,0.054,-1.057,-5.786,5.176,-0.458,822366079
0.201,0.054,-1.052,-5.985,6.076,-0.244,822370089
0.203,0.055,-1.061,-6.595,6.427,-0.626,822374100
0.208,0.060,-1.058,-7.221,6.534,-1.237,822378109
0.212,0.049,-1.070,-7.527,5.985,-1.481,822382119
0.219,0.062,-1.073,-7.832,5.557,-1.893,822386135
0.214,0.044,-1.078,-7.771,5.237,-2.382,822390145
0.230,0.057,-1.085,-7.878,5.221,-2.153,822394156
0.220,0.063,-1.089,-6.916,5.191,-1.359,822398165
0.216,0.054,-1.069,-6.550,5.588,-0.992,822402174
0.223,0.056,-1.087,-6.595,5.252,-0.916,822406184
0.227,0.050,-1.087,-6.458,5.176,-1.237,822410193
0.220,0.050,-1.078,-6.656,5.191,-1.252,822414202
0.225,0.053,-1.079,-6.855,5.756,-1.328,822418212
0.230,0.054,-1.087,-7.023,5.695,-1.511,822422222
0.226,0.057,-1.087,-7.405,6.015,-1.542,822426231
0.232,0.058,-1.085,-7.496,6.198,-1.786,822430241
0.228,0.056,-1.089,-7.985,5.710,-1.985,822434251
0.229,0.048,-1.085,-8.382,6.046,-2.611,822438261
0.226,0.049,-1.085,-8.824,5.817,-2.809,822442271
0.227,0.058,-1.079,-9.527,5.863,-3.115,822446290
0.219,0.052,-1.086,-10.290,6.382,-3.527,822450300
0.209,0.062,-1.088,-10.718,6.519,-3.924,822454310
0.210,0.070,-1.092,-10.763,6.687,-4.000,822458320
0.207,0.068,-1.091,-10.656,6.809,-4.137,822462330
0.214,0.071,-1.106,-10.244,6.611,-3.954,822466350
0.220,0.070,-1.103,-10.275,6.641,-4.137,822470360
0.222,0.067,-1.105,-10.351,6.107,-3.878,822474370
0.224,0.062,-1.106,-10.550,5.664,-3.924,822478380
0.219,0.065,-1.106,-11.008,5.328,-3.893,822482389
0.224,0.064,-1.104,-10.947,5.160,-3.924,822486406
0.209,0.065,-1.109,-11.008,4.672,-3.634,822490416
0.214,0.069,-1.114,-10.885,4.214,-3.740,822494427
0.207,0.065,-1.102,-10.947,4.733,-3.557,822498436
0.214,0.077,-1.104,-10.427,5.008,-3.359,822502445
0.213,0.081,-1.112,-10.321,5.038,-3.176,822506455
0.217,0.082,-1.115,-9.664,5.130,-2.763,822510466
0.218,0.076,-1.107,-9.420,5.084,-2.397,822514475
0.216,0.087,-1.112,-9.023,5.649,-2.260,822518484
0.216,0.079,-1.105,-8.763,6.443,-2.504,822522494
0.222,0.081,-1.108,-8.031,6.794,-2.580,822526504
0.214,0.077,-1.115,-7.573,7.176,-2.504,822530513
0.213,0.071,-1.115,-7.160,7.191,-2.870,822534523
0.215,0.074,-1.116,-7.099,7.771,-3.405,822538533
0.221,0.075,-1.122,-7.588,8.397,-3.511,822542543
0.228,0.077,-1.128,-7.771,9.084,-3.710,822546552
0.231,0.075,-1.119,-7.237,9.084,-3.603,822550562
0.231,0.072,-1.128,-7.176,8.870,-3.160,822554573
0.227,0.074,-1.130,-6.901,8.427,-3.359,822558582
0.235,0.065,-1.146,-6.901,8.275,-2.916,822562592
0.241,0.067,-1.163,-8.122,8.260,-2.687,822566603
0.244,0.053,-1.150,-8.504,8.305,-2.855,822570612
0.252,0.053,-1.140,-8.534,7.435,-3.160,822574621
0.247,0.046,-1.138,-8.748,7.023,-2.977,822578631
0.246,0.059,-1.138,-8.672,6.656,-2.809,822582641
0.242,0.066,-1.149,-8.519,6.397,-2.351,822586660
0.245,0.069,-1.151,-8.702,5.542,-2.015,822590670
0.242,0.066,-1.143,-8.611,4.687,-2.046,822594680
0.256,0.063,-1.146,-8.992,4.321,-2.198,822598690
0.255,0.064,-1.134,-9.344,3.756,-2.046,822602700
0.248,0.073,-1.115,-8.870,3.282,-2.031,822606720
0.239,0.071,-1.127,-9.160,3.344,-1.985,822610730
0.241,0.073,-1.116,-9.099,3.298,-1.634,822614740
0.236,0.082,-1.122,-8.870,3.282,-1.099,822618750
0.229,0.078,-1.118,-9.023,3.206,-1.145,822622760
0.235,0.076,-1.125,-8.779,3.557,-1.099,822626777
0.232,0.085,-1.117,-8.580,3.328,-1.221,822630788
0.238,0.084,-1.114,-8.840,3.420,-1.466,822634797
0.233,0.084,-1.105,-9.084,3.481,-1.435,822638806
0.231,0.087,-1.100,-9.176,3.756,-1.420,822642816
0.221,0.091,-1.091,-8.901,3.878,-1.557,822646825
0.230,0.084,-1.094,-8.931,4.489,-1.481,822650834
0.225,0.087,-1.087,-8.962,4.885,-1.893,822654845
0.229,0.092,-1.094,-8.519,5.313,-1.847,822658854
0.226,0.086,-1.083,-8.336,4.992,-1.527,822662864
0.234,0.082,-1.095,-8.076,5.191,-1.573,822666873
0.240,0.082,-1.103,-8.351,5.191,-1.695,822670882
0.244,0.079,-1.082,-7.985,4.611,-1.313,822674892
0.239,0.083,-1.085,-7.298,4.260,-1.832,822678902
0.238,0.081,-1.089,-6.687,3.908,-1.573,822682912
0.240,0.082,-1.086,-5.802,3.466,-1.634,822686931
0.243,0.080,-1.083,-5.664,3.237,-1.740,822690942
0.242,0.088,-1.084,-4.794,2.504,-1.374,822694951
0.238,0.083,-1.082,-4.183,1.847,-1.557,822698961
0.238,0.085,-1.082,-3.939,1.511,-1.298,822702980
0.235,0.084,-1.083,-3.237,1.099,-1.008,822706989
0.235,0.079,-1.086,-2.473,1.053,-0.595,822711000
0.231,0.088,-1.080,-1.664,1.053,-0.427,822715010
0.235,0.081,-1.072,-0.687,1.206,-0.290,822719019
0.225,0.080,-1.075,-0.168,1.145,-0.382,822723028
0.226,0.085,-1.075,0.427,1.374,-0.229,822727038
0.223,0.078,-1.075,0.504,0.962,0.153,822731048
0.218,0.075,-1.063,0.198,1.359,-0.076,822735059
0.226,0.073,-1.060,0.031,1.695,-0.092,822739068
0.223,0.072,-1.071,-0.443,2.153,-0.321,822743077
0.223,0.069,-1.087,-0.855,2.656,-0.687,822747087
0.222,0.066,-1.077,-1.252,2.870,-0.947,822751098
0.226,0.065,-1.077,-1.221,2.855,-1.115,822755107
0.229,0.065,-1.087,-1.450,2.748,-0.870,822759117
0.227,0.060,-1.083,-1.450,2.489,-1.038,822763127
0.227,0.068,-1.086,-1.511,2.733,-0.870,822767137
0.233,0.072,-1.099,-1.359,2.275,-0.626,822771148
0.233,0.074,-1.094,-0.916,1.786,-0.519,822775157
0.236,0.070,-1.089,-0.321,1.191,-0.489,822779166
0.231,0.069,-1.093,0.168,1.038,-0.275,822783176
0.240,0.066,-1.090,0.550,0.458,-0.031,822787186
0.236,0.070,-1.097,0.931,0.397,0.244,822791197
0.240,0.065,-1.097,1.405,0.504,0.687,822795206
0.236,0.069,-1.105,2.076,-0.321,0.840,822799216
0.240,0.061,-1.097,2.412,-0.489,1.206,822803226
0.234,0.059,-1.107,2.733,-0.595,1.206,822807236
0.227,0.062,-1.105,2.718,-0.351,1.252,822811245
0.233,0.052,-1.110,2.519,0.061,1.053,822815255
0.234,0.049,-1.112,1.969,0.214,1.023,822819266
0.237,0.054,-1.112,1.511,0.885,0.718,822823275
0.236,0.052,-1.108,0.885,1.130,0.641,822827285
0.230,0.050,-1.113,0.183,1.786,0.198,822831296
0.232,0.053,-1.105,0.015,2.580,-0.305,822835305
0.234,0.049,-1.108,-0.244,2.702,-0.336,822839314
0.236,0.062,-1.108,-0.305,3.008,-0.489,822843324
0.230,0.066,-1.097,-0.489,3.542,-0.641,822847333
0.234,0.069,-1.100,-0.794,4.076,-0.260,822851344
0.228,0.066,-1.111,-1.786,5.023,-0.489,822855353
0.241,0.063,-1.108,-2.290,5.069,-0.382,822859363
0.241,0.064,-1.113,-2.580,4.931,-0.473,822863373
0.248,0.063,-1.104,-2.885,4.626,-0.504,822867383
0.246,0.055,-1.101,-3.221,4.702,-0.885,822871395
0.241,0.063,-1.106,-2.962,4.305,-0.809,822875404
0.235,0.069,-1.100,-2.779,3.969,-0.550,822879413
0.230,0.072,-1.090,-2.748,3.344,-0.275,822883423
0.238,0.068,-1.094,-2.595,3.496,-0.351,822887432
0.236,0.064,-1.100,-2.794,3.176,-0.321,822891442
0.240,0.064,-1.099,-2.595,2.763,-0.397,822895452
0.235,0.075,-1.097,-2.458,2.519,-0.595,822899462
0.238,0.070,-1.108,-2.473,2.336,-0.458,822903472
0.232,0.072,-1.104,-2.183,2.168,-0.229,822907482
0.239,0.070,-1.103,-1.954,2.198,-0.153,822911491
0.231,0.070,-1.092,-2.214,2.366,-0.076,822915502
0.235,0.065,-1.101,-1.542,2.626,0.397,822919511
0.241,0.070,-1.108,-1.099,2.214,0.718,822923520
0.239,0.063,-1.102,-1.069,2.244,0.595,822927530
0.245,0.063,-1.103,-0.382,2.229,0.718,822931540
0.239,0.062,-1.104,-0.260,2.168,0.962,822935550
0.230,0.057,-1.101,-0.122,2.595,0.916,822939560
0.234,0.055,-1.103,-0.427,3.252,0.718,822943570
0.245,0.051,-1.117,-0.412,3.450,0.687,822947579
0.247,0.058,-1.105,-1.023,3.145,0.626,822951590
0.243,0.058,-1.101,-1.298,3.740,0.214,822955600
0.250,0.059,-1.104,-1.603,3.832,0.275,822959609
0.249,0.058,-1.096,-1.527,3.771,0.260,822963618
0.238,0.055,-1.104,-1.908,3.023,-0.153,822967628
0.241,0.062,-1.094,-2.092,2.870,-0.122,822971638
0.237,0.059,-1.094,-1.924,2.702,-0.687,822975647
0.231,0.052,-1.093,-3.084,3.649,-0.595,822979656
0.230,0.061,-1.085,-3.496,3.695,-0.656,822983665
0.230,0.061,-1.093,-3.847,3.221,-0.687,822987675
0.231,0.064,-1.090,-4.992,3.573,-1.084,822991685
0.241,0.064,-1.087,-5.328,3.542,-1.374,822995694
0.230,0.064,-1.089,-5.649,3.740,-1.099,822999704
0.227,0.062,-1.091,-5.679,3.802,-1.298,823003714
0.236,0.059,-1.093,-5.374,3.221,-1.130,823007724
0.236,0.072,-1.091,-5.206,3.344,-0.733,823011734
0.240,0.073,-1.100,-4.366,2.534,-0.168,823015752
0.231,0.078,-1.101,-3.878,2.107,-0.229,823019763
0.230,0.072,-1.094,-2.824,1.649,0.076,823023772
0.231,0.072,-1.096,-2.046,1.405,0.580,823027782
0.236,0.068,-1.098,-0.855,1.573,0.916,823031792
0.229,0.071,-1.094,0.076,1.649,1.634,823035805
0.225,0.072,-1.088,1.023,1.389,1.634,823039815
0.227,0.069,-1.095,1.634,1.450,1.817,823043826
0.227,0.063,-1.090,1.878,1.466,2.153,823047835
0.229,0.060,-1.103,1.786,1.817,2.275,823051846
0.228,0.051,-1.101,1.908,1.847,2.244,823055856
0.231,0.050,-1.095,1.511,1.771,2.321,823059866
0.233,0.042,-1.088,1.389,1.695,2.214,823063876
0.232,0.039,-1.098,0.916,1.618,1.924,823067886
0.235,0.039,-1.099,0.489,1.924,1.756,823071896
0.244,0.041,-1.101,0.107,1.802,1.542,823075906
0.233,0.040,-1.098,-0.321,1.832,1.298,823079915
0.236,0.049,-1.108,-0.061,1.298,1.634,823083925
0.233,0.044,-1.106,-0.351,1.053,1.679,823087934
0.244,0.040,-1.107,-0.550,0.977,1.496,823091945
0.245,0.037,-1.119,-0.260,0.947,1.588,823095956
0.242,0.043,-1.110,-0.489,1.130,1.557,823099966
0.244,0.039,-1.100,-0.458,1.099,1.344,823103976
0.242,0.044,-1.114,-0.168,0.672,1.664,823107986
0.251,0.039,-1.117,-0.412,0.840,1.908,823111996
0.241,0.034,-1.109,-0.305,0.489,1.664,823116015
0.247,0.035,-1.108,-0.275,0.366,1.710,823120025
0.244,0.038,-1.107,-0.137,0.565,1.695,823124035
0.242,0.039,-1.112,-0.076,0.718,1.695,823128045
0.245,0.035,-1.102,-0.489,0.992,1.496,823132054
0.242,0.034,-1.105,-0.519,1.038,1.496,823136074
0.244,0.040,-1.108,-0.168,1.252,1.756,823140084
0.242,0.042,-1.104,-0.031,1.679,1.908,823144094
0.242,0.044,-1.107,0.397,2.015,1.786,823148105
0.249,0.006,-1.104,0.580,1.939,0.748,823152114
0.258,0.059,-1.106,1.176,1.542,0.366,823156133
0.232,0.065,-1.104,2.092,2.168,1.939,823160142
0.235,0.046,-1.086,2.229,2.702,2.427,823164152
0.242,0.041,-1.109,2.137,2.641,1.863,823168162
0.243,0.042,-1.112,2.046,2.595,1.481,823172172
0.249,0.036,-1.100,1.863,2.305,1.389,823176181
0.242,0.037,-1.097,1.802,2.260,1.221,823180191
0.244,0.039,-1.110,1.817,2.275,1.099,823184200
0.239,0.043,-1.096,2.000,1.924,1.145,823188209
0.246,0.034,-1.105,1.115,2.076,0.962,823192219
0.242,0.036,-1.102,0.962,2.244,0.870,823196228
0.242,0.039,-1.105,0.779,2.168,0.824,823200238
0.246,0.043,-1.104,1.069,1.634,1.252,823204248
0.243,0.039,-1.101,0.763,1.252,1.115,823208258
0.248,0.033,-1.106,0.702,1.221,1.099,823212268
0.252,0.041,-1.101,0.885,1.038,1.160,823216287
0.241,0.036,-1.114,0.763,1.221,1.435,823220296
0.231,0.028,-1.110,0.718,0.977,1.313,823224305
0.238,0.032,-1.111,0.901,1.511,1.099,823228315
0.239,0.031,-1.110,0.641,1.466,1.130,823232325
0.240,0.029,-1.101,0.718,1.481,1.527,823236345
0.237,0.034,-1.103,0.580,1.786,1.695,823240354
0.237,0.041,-1.110,0.794,2.198,1.817,823244363
0.240,0.040,-1.097,0.580,1.908,1.557,823248373
0.240,0.041,-1.112,0.718,2.534,1.786,823252383
0.237,0.038,-1.104,0.962,2.641,2.107,823256400
0.237,0.042,-1.094,0.824,2.855,2.061,823260409
0.232,0.026,-1.105,0.550,3.282,2.244,823264419
0.227,0.033,-1.097,0.397,3.893,2.107,823268429
0.233,0.031,-1.097,0.687,3.618,2.489,823272439
0.240,0.039,-1.107,0.687,3.527,2.565,823276449
0.240,0.032,-1.110,0.794,3.008,2.305,823280460
0.248,0.030,-1.108,0.779,2.977,2.473,823284470
0.247,0.026,-1.107,0.718,2.687,2.595,823288479
0.253,0.023,-1.103,0.641,2.427,2.504,823292488
0.249,0.023,-1.103,0.656,1.817,2.458,823296498
0.245,0.016,-1.091,0.794,1.939,2.229,823300509
0.242,0.021,-1.099,0.733,1.802,2.153,823304518
0.239,0.017,-1.102,0.809,1.939,2.168,823308527
0.235,0.028,-1.091,0.977,2.015,2.305,823312537
0.248,0.023,-1.097,1.099,2.122,2.336,823316547
0.243,0.024,-1.092,1.099,2.351,2.275,823320557
0.246,0.021,-1.089,1.099,2.565,2.290,823324566
0.238,0.025,-1.092,1.237,2.763,2.015,823328575
0.243,0.024,-1.091,1.282,2.794,2.031,823332585
0.240,0.012,-1.100,1.359,2.977,1.924,823336594
0.248,0.011,-1.092,1.038,3.084,1.924,823340603
0.249,0.011,-1.107,1.191,3.160,1.832,823344613
0.244,0.014,-1.092,0.809,2.580,1.267,823348622
0.242,0.012,-1.100,0.534,2.336,1.115,823352631
0.248,0.012,-1.086,0.107,2.305,0.947,823356651
0.237,0.020,-1.088,-0.183,2.198,0.458,823360660
0.237,0.026,-1.086,0.000,2.427,0.779,823364670
0.231,0.024,-1.084,0.351,2.794,1.053,823368680
0.240,0.017,-1.089,0.351,2.641,0.931,823372689
0.232,0.021,-1.101,0.611,2.321,0.779,823376708
0.238,0.015,-1.095,0.656,2.290,1.099,823380718
0.244,0.016,-1.089,0.824,2.046,1.481,823384728
0.242,0.011,-1.083,1.206,1.649,1.618,823388738
0.236,0.010,-1.094,1.344,1.221,1.649,823392748
0.238,0.021,-1.086,1.603,1.389,1.771,823396768
0.231,0.023,-1.088,2.260,1.679,1.893,823400777
0.233,0.016,-1.084,2.763,1.481,2.122,823404788
0.234,0.014,-1.082,3.023,1.771,2.321,823408797
0.240,0.008,-1.086,3.252,1.878,2.443,823412807
0.240,0.006,-1.092,3.221,1.939,2.427,823416816
0.240,-0.000,-1.088,3.328,2.031,2.351,823420825
0.247,0.004,-1.093,3.130,1.893,2.061,823424835
0.246,-0.005,-1.096,2.992,2.031,1.939,823428845
0.239,-0.003,-1.091,2.550,2.183,1.634,823432855
0.240,-0.003,-1.094,1.847,2.702,1.298,823436866
0.244,-0.005,-1.096,2.092,3.069,1.298,823440875
0.237,0.005,-1.103,1.389,3.160,1.359,823444885
0.240,0.005,-1.089,1.099,3.176,0.977,823448894
0.237,0.000,-1.096,0.473,3.649,0.519,823452903
0.232,-0.001,-1.087,0.168,4.000,0.550,823456922
0.235,0.010,-1.087,-0.305,4.641,0.565,823460934
0.231,0.006,-1.088,-0.809,4.336,0.672,823464943
0.233,0.002,-1.081,-0.718,4.855,0.412,823468953
0.233,0.011,-1.075,-0.794,4.458,0.611,823472963
0.231,0.012,-1.069,-0.672,4.382,0.595,823476983
0.230,0.015,-1.064,-1.191,4.122,0.519,823480992
0.227,0.018,-1.069,-1.389,4.061,0.748,823485003
0.224,0.014,-1.061,-1.344,3.878,0.504,823489012
0.220,0.030,-1.058,-1.221,4.153,1.130,823493022
0.224,0.031,-1.062,-0.626,4.504,1.725,823497031
0.220,0.034,-1.067,-0.534,4.336,1.649,823501042
0.226,0.024,-1.059,0.260,4.092,1.954,823505051
0.227,0.033,-1.058,0.809,3.359,2.183,823509060
0.223,0.023,-1.052,1.038,2.809,2.076,823513070
0.229,0.017,-1.063,0.931,2.779,1.924,823517080
0.220,0.037,-1.065,1.603,2.366,2.473,823521091
0.225,0.026,-1.075,2.244,2.336,3.099,823525101
0.238,0.025,-1.081,2.519,1.664,3.511,823529110
0.241,0.014,-1.091,2.885,1.206,3.664,823533119
0.247,0.000,-1.092,3.221,0.137,3.588,823537129
0.254,0.003,-1.086,3.481,-0.031,3.664,823541139
0.253,-0.007,-1.090,3.130,-0.366,3.450,823545149
0.243,-0.010,-1.096,2.901,-0.550,3.282,823549159
0.238,-0.016,-1.096,2.153,-0.656,3.053,823553169
0.237,-0.019,-1.094,1.084,0.321,2.840,823557179
0.245,-0.020,-1.102,0.473,0.382,2.321,823561189
0.241,-0.023,-1.111,-0.870,0.565,1.786,823565199
0.240,-0.027,-1.107,-2.015,1.573,0.809,823569209
0.244,-0.023,-1.097,-3.847,2.763,0.351,823573220
0.233,-0.030,-1.113,-5.130,3.710,-0.427,823577229
0.233,-0.034,-1.106,-7.267,4.229,-1.359,823581239
0.231,-0.031,-1.111,-9.511,5.939,-2.977,823585249
0.229,-0.035,-1.112,-11.985,6.824,-4.076,823589259
0.231,-0.038,-1.156,-15.649,8.046,-4.565,823593270
0.239,-0.033,-1.123,-18.137,7.893,-6.550,823597279
0.249,-0.018,-1.096,-18.397,7.252,-7.557,823601290
0.235,0.005,-1.094,-18.214,6.916,-6.992,823605299
0.238,0.012,-1.100,-17.466,6.489,-5.725,823609310
0.241,0.007,-1.111,-17.145,6.382,-5.115,823613319
0.260,0.005,-1.124,-17.099,5.817,-4.855,823617329
0.258,0.009,-1.122,-16.153,5.069,-4.504,823621340
0.248,0.022,-1.120,-15.557,4.290,-4.214,823625349
0.256,0.028,-1.112,-13.863,2.855,-3.099,823629358
0.256,0.021,-1.118,-12.565,1.298,-2.153,823633368
0.251,0.034,-1.110,-11.206,0.260,-1.069,823637378
0.243,0.020,-1.103,-10.122,-0.779,-1.237,823641388
0.245,0.024,-1.096,-8.595,-1.618,-0.198,823645397
0.239,0.018,-1.102,-7.878,-2.779,-0.473,823649406
0.255,0.002,-1.100,-6.443,-3.710,-1.450,823653415
0.226,0.021,-1.107,-5.832,-3.603,-1.282,823657425
0.210,0.047,-1.099,-6.183,-2.565,0.275,823661430
0.206,0.037,-1.103,-6.168,-1.710,1.771,823665440
0.209,0.029,-1.107,-5.481,-0.656,2.702,823669450
0.219,0.020,-1.106,-5.191,0.260,2.565,823673460
0.223,0.011,-1.095,-5.359,0.870,2.076,823677470
0.222,0.010,-1.093,-5.267,2.122,1.863,823681479
0.222,0.024,-1.116,-5.099,3.359,2.550,823685489
0.216,0.034,-1.111,-4.763,3.679,3.511,823689498
0.225,0.028,-1.113,-4.550,3.557,3.573,823693507
0.236,0.023,-1.105,-4.443,3.282,3.802,823697517
0.245,0.024,-1.114,-3.756,3.160,4.321,823701527
0.245,0.022,-1.105,-2.779,2.763,4.809,823705536
0.250,0.028,-1.112,-2.107,1.985,5.313,823709546
0.257,0.022,-1.118,-1.420,0.916,5.618,823713556
0.259,0.015,-1.117,-0.595,-0.382,5.649,823717566
0.257,0.017,-1.111,0.061,-1.374,5.985,823721575
0.257,0.019,-1.108,0.992,-1.969,6.305,823725585
0.259,0.012,-1.121,1.695,-2.626,6.321,823729594
0.254,0.016,-1.115,2.153,-3.145,6.672,823733603
0.259,-0.000,-1.119,2.626,-3.847,6.321,823737613
0.254,-0.000,-1.126,2.916,-4.153,6.305,823741623
0.260,0.004,-1.114,3.069,-4.000,6.122,823745632
0.260,-0.004,-1.120,3.069,-4.260,5.954,823749641
0.252,-0.008,-1.119,2.580,-3.557,5.863,823753650
0.250,-0.006,-1.119,2.092,-3.389,5.359,823757660
0.255,-0.004,-1.127,1.878,-2.809,4.931,823761671
0.252,-0.013,-1.121,1.771,-2.641,4.931,823765681
0.246,-0.010,-1.123,2.046,-1.740,4.733,823769691
0.247,-0.007,-1.121,2.275,-1.557,4.916,823773701
0.254,-0.005,-1.125,2.443,-0.992,5.008,823777711
0.259,-0.007,-1.118,2.687,-0.794,4.779,823781721
0.262,-0.008,-1.122,2.824,-0.641,4.687,823785741
0.263,-0.010,-1.140,2.748,-0.763,4.534,823789751
0.271,-0.017,-1.135,2.656,-0.916,4.489,823793761
0.262,-0.025,-1.126,2.489,-1.267,4.092,823797771
0.271,-0.025,-1.134,2.473,-1.405,3.878,823801781
0.268,-0.020,-1.123,2.382,-1.725,3.344,823805791
0.272,-0.020,-1.130,2.061,-2.015,3.420,823809802
0.268,-0.018,-1.129,2.198,-2.183,2.947,823813811
0.274,-0.021,-1.128,1.664,-2.412,2.534,823817820
0.270,-0.021,-1.123,1.420,-2.260,1.924,823821830
0.262,-0.016,-1.123,1.450,-2.443,1.924,823825840
0.263,-0.023,-1.119,1.115,-2.183,1.863,823829851
0.259,-0.021,-1.116,1.008,-2.229,1.313,823833860
0.255,-0.024,-1.119,0.733,-1.878,1.328,823837870
0.252,-0.022,-1.110,0.275,-1.786,1.099,823841881
0.254,-0.021,-1.111,-0.275,-1.679,0.534,823845891
0.251,-0.022,-1.115,-0.336,-1.359,0.473,823849900
0.258,-0.024,-1.098,-0.168,-1.832,0.198,823853910
0.262,-0.011,-1.112,-0.534,-1.664,-0.168,823857919
0.255,-0.006,-1.113,-0.611,-1.786,-0.031,823861930
0.252,-0.016,-1.114,-0.595,-1.588,0.229,823865939
0.243,-0.011,-1.107,-0.198,-1.405,0.351,823869949
0.249,-0.012,-1.107,-0.061,-1.817,0.229,823873959
0.255,-0.010,-1.105,-0.260,-1.710,-0.092,823877969
0.248,-0.008,-1.105,-0.153,-1.756,0.076,823881979
0.250,-0.012,-1.103,0.061,-1.618,-0.076,823885989
0.245,-0.009,-1.104,0.122,-1.649,0.107,823889998
0.245,-0.013,-1.101,-0.046,-1.893,-0.290,823894007
0.250,-0.016,-1.096,0.046,-2.183,-0.305,823898016
0.254,-0.005,-1.099,-0.076,-2.137,-0.427,823902026
0.240,-0.007,-1.100,-0.107,-2.015,-0.382,823906045
0.246,-0.010,-1.096,-0.031,-1.710,-0.107,823910056
0.241,-0.011,-1.092,0.061,-1.053,0.015,823914065
0.236,-0.010,-1.094,0.229,-1.237,0.031,823918075
0.233,-0.010,-1.099,0.473,-1.298,0.046,823922085
0.231,-0.008,-1.086,0.672,-0.656,0.046,823926105
0.233,-0.014,-1.088,0.870,-0.855,0.473,823930115
0.231,-0.004,-1.090,1.053,-0.595,0.382,823934125
0.232,-0.007,-1.088,1.053,-0.214,0.244,823938136
0.239,-0.008,-1.085,1.130,-0.229,0.382,823942145
0.229,-0.009,-1.082,1.176,-0.061,0.534,823946156
0.230,-0.013,-1.081,1.435,-0.214,0.489,823950165
0.236,-0.016,-1.084,1.298,-0.626,0.427,823954174
0.237,-0.013,-1.081,1.252,-0.611,0.412,823958184
0.236,-0.012,-1.088,1.176,-0.779,0.534,823962194
0.235,-0.017,-1.073,0.870,-0.992,0.427,823966203
0.232,-0.022,-1.081,0.840,-0.962,0.153,823970213
0.234,-0.027,-1.086,0.336,-1.252,-0.214,823974224
