acc_x,acc_y,acc_z,gyro_x,gyro_y,gyro_z,time
0.179,0.117,-1.134,-4.000,0.382,-1.771,0
0.186,0.121,-1.128,-3.969,0.809,-2.061,4049
0.175,0.119,-1.134,-4.000,0.565,-1.847,8062
0.172,0.114,-1.134,-3.939,0.412,-1.527,12073
0.180,0.117,-1.129,-4.198,0.702,-1.328,16084
0.184,0.117,-1.131,-4.336,1.023,-1.710,20095
0.182,0.116,-1.118,-4.336,1.176,-1.725,24106
0.186,0.120,-1.129,-4.595,1.557,-1.908,28116
0.185,0.120,-1.135,-4.824,1.695,-1.740,32128
0.186,0.123,-1.133,-4.809,1.664,-1.924,36138
0.181,0.119,-1.128,-4.885,1.420,-1.878,40149
0.191,0.121,-1.135,-4.962,1.069,-1.695,44160
0.190,0.123,-1.120,-4.992,0.641,-1.863,48169
0.189,0.124,-1.122,-4.977,0.458,-1.786,52180
0.190,0.126,-1.125,-4.870,0.244,-1.771,56191
0.183,0.125,-1.125,-4.763,0.153,-1.893,60202
0.180,0.123,-1.127,-4.809,0.183,-1.618,64213
0.184,0.133,-1.129,-4.748,0.214,-1.466,68225
0.175,0.129,-1.120,-4.824,0.260,-1.344,72236
0.177,0.135,-1.122,-4.885,0.031,-1.298,76247
0.179,0.129,-1.121,-4.779,0.351,-1.282,80258
0.178,0.134,-1.121,-4.458,-0.015,-1.618,84269
0.184,0.140,-1.119,-4.565,0.107,-1.588,88281
0.188,0.135,-1.121,-4.290,0.473,-1.756,92292
0.179,0.135,-1.130,-4.153,0.504,-1.573,96304
0.182,0.131,-1.125,-4.015,0.779,-1.557,100315
0.176,0.134,-1.125,-4.031,0.595,-1.542,104326
0.173,0.138,-1.119,-3.664,0.870,-1.359,108338
0.176,0.134,-1.131,-3.618,0.840,-1.221,112349
0.177,0.136,-1.129,-3.344,0.885,-1.160,116360
0.177,0.131,-1.119,-3.176,0.916,-0.962,120371
0.176,0.135,-1.123,-2.840,1.038,-0.931,124382
0.176,0.140,-1.116,-2.702,1.008,-0.763,128392
0.176,0.137,-1.120,-2.565,1.023,-0.779,132403
0.178,0.139,-1.116,-2.458,1.130,-0.779,136414
0.178,0.132,-1.138,-2.183,1.420,-0.534,140425
0.173,0.138,-1.120,-2.412,1.496,-0.336,144436
0.181,0.137,-1.131,-2.580,1.725,-0.321,148447
0.182,0.134,-1.131,-2.748,1.756,-0.260,152457
0.185,0.133,-1.125,-2.656,1.649,-0.214,156468
0.197,0.138,-1.128,-2.672,1.511,-0.275,160480
0.199,0.136,-1.134,-2.718,1.374,-0.275,164491
0.199,0.135,-1.134,-2.809,1.298,-0.260,168502
0.207,0.135,-1.133,-2.763,1.130,-0.076,172513
0.200,0.138,-1.135,-3.023,0.947,-0.183,176524
0.191,0.136,-1.138,-3.115,0.870,-0.031,180535
0.206,0.133,-1.130,-3.206,0.763,-0.168,184546
0.204,0.135,-1.131,-3.252,0.656,-0.214,188557
0.198,0.135,-1.142,-3.053,0.550,-0.244,192568
0.201,0.134,-1.138,-3.115,0.626,-0.122,196580
0.206,0.128,-1.141,-3.084,0.473,-0.260,200591
0.204,0.126,-1.135,-3.069,0.550,-0.305,204602
0.207,0.135,-1.138,-3.435,0.275,-0.275,208614
0.203,0.145,-1.121,-3.008,0.519,-0.718,212626
0.210,0.128,-1.134,-3.099,0.183,-0.718,216637
0.208,0.124,-1.139,-3.649,-0.321,-0.824,220649
0.202,0.139,-1.134,-3.344,-0.336,-1.206,224660
0.197,0.128,-1.143,-3.481,-0.290,-1.237,228671
0.202,0.128,-1.129,-3.695,-0.214,-1.374,232689
0.201,0.131,-1.135,-3.771,-0.061,-1.542,236700
0.196,0.128,-1.142,-3.847,0.107,-1.557,240711
0.203,0.126,-1.135,-4.183,0.092,-1.511,244722
0.204,0.125,-1.147,-4.198,0.107,-1.863,248733
0.201,0.128,-1.136,-4.107,0.107,-1.695,252744
0.214,0.124,-1.135,-4.198,-0.107,-1.634,256755
0.211,0.132,-1.135,-4.046,-0.458,-1.954,260766
0.210,0.128,-1.142,-4.244,-0.397,-2.000,264777
0.198,0.126,-1.149,-4.565,-0.702,-1.939,268790
0.194,0.125,-1.136,-4.550,-0.656,-1.771,272801
0.194,0.131,-1.133,-4.595,-0.916,-1.832,276812
0.199,0.131,-1.141,-4.565,-0.779,-1.878,280823
0.194,0.132,-1.139,-4.580,-0.687,-1.939,284834
0.197,0.132,-1.142,-4.718,-0.702,-1.969,288845
0.189,0.132,-1.137,-4.641,-0.611,-2.122,292855
0.188,0.134,-1.138,-5.053,-0.733,-2.076,296866
0.189,0.128,-1.132,-5.267,-0.748,-2.153,300877
0.190,0.128,-1.137,-5.389,-0.840,-2.305,304888
0.190,0.135,-1.125,-5.450,-0.641,-2.550,308900
0.195,0.127,-1.135,-5.527,-0.565,-2.595,312911
0.193,0.132,-1.128,-5.695,-0.489,-2.794,316923
0.194,0.124,-1.134,-5.557,-0.504,-2.595,320934
0.185,0.126,-1.116,-5.863,-0.183,-2.748,324946
0.187,0.127,-1.121,-5.985,-0.198,-2.687,328957
0.194,0.128,-1.120,-6.031,-0.275,-2.824,332976
0.192,0.135,-1.119,-5.939,-0.198,-2.779,336987
0.193,0.131,-1.129,-5.817,-0.137,-2.519,340998
0.194,0.131,-1.120,-5.740,-0.229,-2.672,345009
0.191,0.139,-1.118,-5.771,-0.290,-2.855,349020
0.194,0.134,-1.120,-5.557,-0.183,-2.672,353041
0.186,0.133,-1.115,-5.389,-0.366,-2.595,357052
0.184,0.129,-1.132,-5.191,-0.534,-2.595,361063
0.184,0.138,-1.119,-5.176,-0.840,-2.412,365074
0.182,0.136,-1.126,-4.916,-0.672,-2.305,369085
0.184,0.134,-1.125,-4.794,-0.702,-2.198,373098
0.180,0.136,-1.122,-4.687,-0.763,-2.168,377110
0.179,0.138,-1.120,-4.611,-0.641,-2.015,381120
0.175,0.135,-1.118,-4.412,-0.458,-1.878,385131
0.172,0.137,-1.122,-4.550,-0.336,-1.573,389142
0.181,0.137,-1.124,-4.519,-0.397,-1.664,393155
0.177,0.137,-1.120,-4.336,-0.382,-1.634,397166
0.186,0.136,-1.122,-4.473,-0.183,-1.664,401177
0.182,0.141,-1.126,-4.412,-0.489,-1.679,405188
0.185,0.138,-1.117,-4.321,-0.366,-1.603,409199
0.184,0.147,-1.120,-4.305,-0.321,-1.802,413220
0.180,0.149,-1.121,-4.198,-0.458,-1.588,417231
0.177,0.145,-1.119,-4.260,-0.214,-1.588,421243
0.173,0.141,-1.118,-4.198,-0.229,-1.710,425254
0.177,0.141,-1.119,-4.198,0.015,-1.725,429265
0.180,0.144,-1.116,-4.198,0.397,-1.496,433286
0.176,0.138,-1.121,-4.076,0.290,-1.405,437298
0.178,0.137,-1.125,-3.817,0.580,-1.191,441309
0.181,0.135,-1.127,-3.908,0.397,-1.191,445320
0.184,0.140,-1.116,-3.817,0.351,-1.176,449332
0.181,0.143,-1.124,-3.771,0.351,-1.130,453343
0.190,0.138,-1.119,-3.924,0.122,-1.145,457354
0.190,0.139,-1.112,-3.740,-0.214,-1.176,461365
0.189,0.135,-1.114,-3.710,-0.458,-1.130,465376
0.184,0.137,-1.116,-3.771,-0.443,-1.038,469387
0.184,0.139,-1.118,-3.695,-0.290,-1.145,473398
0.181,0.136,-1.116,-3.756,-0.565,-1.237,477410
0.184,0.136,-1.118,-3.786,-0.305,-1.053,481420
0.177,0.140,-1.126,-3.588,-0.321,-0.977,485431
0.180,0.142,-1.122,-3.542,-0.137,-0.733,489442
0.188,0.141,-1.128,-3.496,-0.260,-0.763,493454
0.188,0.145,-1.127,-3.359,-0.336,-0.519,497464
0.190,0.142,-1.138,-3.282,-0.504,-0.305,501475
0.185,0.147,-1.134,-3.359,-0.412,-0.229,505486
0.186,0.143,-1.130,-3.374,-0.473,-0.550,509497
0.187,0.140,-1.140,-3.267,-0.336,-0.382,513507
0.182,0.143,-1.133,-3.191,-0.519,-0.336,517518
0.185,0.138,-1.133,-3.252,-0.534,-0.336,521529
0.188,0.138,-1.131,-3.405,-0.427,-0.519,525540
0.186,0.141,-1.129,-3.573,-0.580,-0.580,529551
0.188,0.142,-1.131,-3.664,-0.351,-0.824,533562
0.190,0.144,-1.132,-3.695,-0.351,-0.855,537573
0.189,0.145,-1.125,-3.863,-0.321,-1.160,541584
0.186,0.141,-1.123,-3.740,-0.397,-1.298,545595
0.195,0.147,-1.127,-3.664,-0.550,-1.420,549606
0.188,0.144,-1.117,-3.496,-0.427,-1.389,553626
0.196,0.143,-1.124,-3.466,-0.458,-1.389,557637
0.204,0.148,-1.128,-3.344,-0.595,-1.573,561648
0.191,0.145,-1.120,-3.221,-0.626,-1.496,565659
0.197,0.145,-1.122,-3.176,-0.794,-1.466,569670
0.191,0.146,-1.117,-2.962,-0.824,-1.466,573690
0.188,0.146,-1.129,-3.023,-0.947,-1.573,577701
0.190,0.144,-1.123,-2.779,-0.992,-1.527,581712
0.194,0.146,-1.114,-2.687,-0.916,-1.588,585723
0.194,0.148,-1.122,-2.733,-0.977,-1.756,589734
0.194,0.137,-1.107,-2.672,-0.977,-1.710,593746
0.190,0.138,-1.113,-2.656,-1.099,-1.817,597756
0.185,0.141,-1.113,-2.504,-1.176,-1.924,601768
0.186,0.134,-1.106,-2.489,-1.160,-2.076,605778
0.192,0.145,-1.116,-2.275,-0.962,-2.412,609789
0.191,0.143,-1.108,-2.198,-0.916,-2.565,613801
0.195,0.152,-1.107,-2.244,-0.977,-2.779,617812
0.189,0.146,-1.101,-2.046,-1.008,-3.359,621823
0.189,0.149,-1.099,-1.863,-0.656,-3.420,625835
0.191,0.145,-1.088,-1.847,-0.260,-3.557,629846
0.186,0.154,-1.088,-1.756,0.137,-4.061,633866
0.186,0.150,-1.068,-1.420,0.305,-4.366,637877
0.186,0.151,-1.070,-1.069,0.977,-4.687,641889
0.179,0.154,-1.066,-0.931,1.542,-4.824,645900
0.187,0.158,-1.065,-0.397,2.153,-5.115,649914
0.188,0.160,-1.052,0.092,2.718,-5.450,653925
0.195,0.156,-1.056,0.687,2.931,-5.939,657936
0.195,0.156,-1.039,1.389,2.763,-6.046,661947
0.201,0.158,-1.029,2.290,2.489,-6.595,665958
0.215,0.160,-1.018,2.962,2.229,-7.038,669969
0.213,0.163,-1.011,3.634,1.634,-7.405,673980
0.216,0.160,-1.000,4.351,0.366,-7.802,677992
0.222,0.160,-0.984,5.053,-0.794,-8.290,682003
0.216,0.154,-0.966,5.695,-2.427,-8.779,686014
0.215,0.157,-0.950,6.107,-4.290,-9.313,690025
0.228,0.154,-0.932,6.550,-6.198,-9.756,694036
0.227,0.143,-0.925,6.427,-7.863,-10.443,698047
0.217,0.145,-0.901,6.290,-9.496,-11.115,702058
0.210,0.141,-0.880,5.756,-10.901,-11.985,706069
0.203,0.131,-0.859,5.069,-12.229,-12.580,710081
0.190,0.130,-0.839,4.046,-13.389,-13.405,714092
0.184,0.134,-0.810,2.992,-13.847,-14.198,718103
0.162,0.131,-0.783,1.725,-14.092,-14.931,722115
0.161,0.136,-0.760,0.840,-13.985,-15.969,726125
0.150,0.130,-0.733,-0.550,-14.641,-16.473,730136
0.139,0.133,-0.717,-2.198,-14.229,-17.252,734147
0.140,0.136,-0.689,-3.511,-13.771,-18.046,738154
0.128,0.127,-0.676,-5.053,-13.374,-18.733,742165
0.114,0.117,-0.654,-6.870,-12.901,-19.435,746176
0.110,0.114,-0.639,-8.107,-12.550,-19.893,750187
0.107,0.108,-0.610,-9.344,-12.000,-20.672,754198
0.109,0.115,-0.597,-10.840,-11.328,-21.191,758210
0.101,0.109,-0.576,-11.817,-11.298,-21.359,762221
0.100,0.115,-0.574,-12.458,-11.527,-21.649,766233
0.106,0.123,-0.553,-12.962,-12.305,-21.679,770244
0.118,0.114,-0.547,-13.435,-13.450,-21.939,774255
0.121,0.122,-0.522,-13.756,-15.328,-21.878,778267
0.124,0.120,-0.518,-13.863,-17.130,-22.015,782278
0.120,0.123,-0.509,-13.725,-19.237,-22.076,786289
0.110,0.125,-0.497,-14.305,-21.267,-21.603,790300
0.105,0.122,-0.483,-14.656,-23.282,-21.099,794311
0.092,0.130,-0.477,-14.779,-25.176,-20.733,798323
0.082,0.136,-0.466,-14.656,-26.702,-20.305,802333
0.073,0.138,-0.462,-14.687,-27.954,-19.313,806344
0.070,0.140,-0.448,-14.580,-29.099,-18.534,810355
0.070,0.143,-0.434,-14.916,-30.107,-17.832,814366
0.069,0.141,-0.426,-15.237,-31.053,-17.237,818377
0.061,0.141,-0.421,-15.603,-31.908,-16.733,822388
0.057,0.145,-0.420,-15.740,-32.092,-16.153,826399
0.042,0.137,-0.424,-16.183,-31.710,-15.618,830410
0.038,0.131,-0.414,-16.595,-31.191,-15.176,834421
0.033,0.126,-0.418,-16.641,-29.588,-15.069,838431
0.018,0.122,-0.408,-16.626,-27.969,-15.282,842442
0.015,0.123,-0.405,-16.229,-25.679,-15.206,846453
0.004,0.124,-0.402,-15.099,-22.672,-14.855,850464
0.003,0.114,-0.416,-13.542,-19.267,-14.641,854475
0.008,0.129,-0.408,-12.427,-16.794,-14.015,858486
0.022,0.127,-0.410,-10.962,-14.198,-13.756,862497
0.037,0.137,-0.404,-9.420,-11.908,-12.947,866508
0.053,0.128,-0.413,-8.107,-10.580,-12.046,870519
0.071,0.126,-0.405,-6.351,-9.725,-11.420,874530
0.077,0.124,-0.403,-3.969,-9.420,-10.947,878542
0.092,0.125,-0.415,-1.206,-9.985,-10.061,882552
0.104,0.134,-0.418,2.107,-11.573,-9.130,886563
0.137,0.135,-0.417,5.374,-14.229,-8.076,890574
0.162,0.132,-0.428,8.305,-17.206,-7.053,894585
0.177,0.110,-0.431,11.359,-20.565,-6.290,898596
0.175,0.109,-0.427,15.008,-23.527,-5.282,902607
0.167,0.093,-0.452,19.191,-26.626,-4.489,906618
0.157,0.080,-0.450,24.000,-28.962,-3.359,910629
0.154,0.069,-0.468,28.962,-30.595,-1.878,914640
0.145,0.055,-0.484,34.198,-31.557,-0.366,918651
0.136,0.040,-0.503,39.771,-31.725,1.145,922671
0.132,0.029,-0.528,44.702,-31.817,3.023,926682
0.130,0.017,-0.554,49.542,-31.710,4.702,930693
0.123,0.013,-0.573,53.573,-31.267,6.321,934704
0.123,0.020,-0.589,57.588,-30.565,7.420,938716
0.104,0.007,-0.613,60.733,-29.786,7.802,942726
0.092,-0.000,-0.621,63.954,-27.985,8.351,946737
0.093,-0.031,-0.664,65.405,-26.290,8.656,950748
0.092,-0.046,-0.675,65.985,-23.802,8.412,954759
0.088,-0.069,-0.708,66.534,-20.885,8.107,958772
0.083,-0.093,-0.741,65.908,-17.954,7.145,962783
0.083,-0.113,-0.768,64.153,-15.756,6.015,966795
0.083,-0.126,-0.774,61.847,-13.405,4.366,970806
0.086,-0.154,-0.777,58.611,-10.580,2.183,974817
0.074,-0.171,-0.782,55.267,-7.176,-0.214,978828
0.050,-0.174,-0.800,51.863,-2.916,-2.443,982839
0.032,-0.179,-0.833,49.618,1.374,-4.168,986850
0.035,-0.167,-0.870,48.702,6.031,-6.519,990861
0.027,-0.148,-0.903,49.557,9.908,-8.748,994872
0.029,-0.128,-0.919,51.221,13.893,-11.115,998884
0.037,-0.101,-0.969,53.725,17.145,-13.176,1002896
0.037,-0.075,-1.013,57.374,20.107,-15.206,1006907
0.032,-0.037,-1.067,61.191,22.092,-17.023,1010918
0.033,-0.014,-1.081,65.588,23.267,-18.092,1014929
0.025,0.007,-1.117,70.763,24.519,-18.382,1018940
0.025,0.021,-1.136,75.969,26.137,-17.603,1022960
0.025,0.008,-1.163,80.031,27.389,-15.893,1026972
0.016,-0.021,-1.196,83.802,28.550,-13.084,1030983
0.031,-0.054,-1.218,86.504,29.557,-9.954,1034994
0.042,-0.099,-1.247,89.679,30.183,-6.443,1039005
0.056,-0.139,-1.273,90.198,30.519,-2.534,1043025
0.068,-0.175,-1.301,92.000,31.008,1.511,1047037
0.076,-0.202,-1.308,92.809,31.863,5.527,1051047
0.087,-0.221,-1.328,93.969,33.023,9.725,1055058
0.088,-0.232,-1.348,95.542,34.565,14.260,1059069
0.103,-0.243,-1.374,97.359,36.260,18.198,1063087
0.123,-0.247,-1.399,98.992,38.137,21.695,1067098
0.140,-0.255,-1.429,100.947,40.992,24.214,1071109
0.146,-0.245,-1.468,103.298,43.832,26.412,1075120
0.158,-0.240,-1.515,106.015,47.221,27.725,1079131
0.178,-0.243,-1.545,108.733,50.656,29.038,1083141
0.207,-0.248,-1.579,110.565,53.878,29.893,1087153
0.238,-0.258,-1.617,111.450,56.534,30.672,1091163
0.273,-0.274,-1.625,110.534,58.687,30.595,1095174
0.297,-0.286,-1.640,108.473,60.473,30.473,1099186
0.303,-0.319,-1.643,105.405,61.802,29.435,1103206
0.294,-0.338,-1.649,100.718,62.275,28.321,1107217
0.288,-0.359,-1.674,96.275,62.489,27.221,1111228
0.285,-0.379,-1.662,90.260,62.931,25.649,1115239
0.277,-0.417,-1.694,85.649,63.038,23.496,1119250
0.283,-0.430,-1.695,80.000,62.870,20.855,1123271
0.286,-0.450,-1.695,74.626,62.366,17.740,1127282
0.303,-0.441,-1.691,70.336,60.183,14.397,1131293
0.331,-0.422,-1.703,66.519,57.115,11.542,1135305
0.360,-0.404,-1.694,63.038,52.550,9.237,1139316
0.376,-0.391,-1.678,59.985,46.992,6.947,1143334
0.388,-0.369,-1.670,57.344,41.160,5.145,1147344
0.390,-0.353,-1.664,55.740,34.718,4.168,1151355
0.385,-0.335,-1.659,54.183,28.595,3.008,1155366
0.359,-0.310,-1.632,54.183,23.664,2.366,1159377
0.339,-0.287,-1.653,54.794,20.076,3.221,1163388
0.331,-0.267,-1.648,56.229,17.237,4.534,1167399
0.324,-0.260,-1.631,57.588,14.672,6.122,1171410
0.340,-0.268,-1.634,58.611,11.405,7.252,1175421
0.347,-0.282,-1.639,58.626,8.687,8.504,1179432
0.336,-0.307,-1.652,57.420,6.687,9.954,1183443
0.316,-0.317,-1.651,55.588,5.435,11.282,1187455
0.293,-0.329,-1.657,54.061,4.901,11.802,1191465
0.267,-0.322,-1.664,53.099,5.710,12.321,1195477
0.240,-0.315,-1.689,52.718,6.763,12.473,1199488
0.235,-0.320,-1.692,52.641,8.427,12.641,1203498
0.240,-0.336,-1.703,52.656,9.802,12.611,1207509
0.253,-0.349,-1.704,52.977,10.641,12.580,1211520
0.274,-0.370,-1.706,52.656,11.328,12.000,1215531
0.285,-0.389,-1.717,52.244,11.954,12.015,1219542
0.284,-0.394,-1.705,51.237,12.275,11.939,1223553
0.292,-0.390,-1.704,50.244,12.702,11.664,1227565
0.271,-0.394,-1.713,49.374,13.847,11.099,1231576
0.258,-0.392,-1.714,48.901,15.313,10.458,1235588
0.253,-0.395,-1.707,48.122,17.008,9.389,1239599
0.258,-0.409,-1.718,47.023,18.794,8.015,1243619
0.263,-0.406,-1.719,45.511,20.198,7.084,1247630
0.271,-0.406,-1.707,43.649,21.328,5.664,1251641
0.286,-0.406,-1.702,41.511,21.557,4.046,1255652
0.283,-0.406,-1.688,39.511,21.557,2.519,1259663
0.300,-0.392,-1.704,37.084,19.557,0.611,1263684
0.299,-0.379,-1.678,35.374,18.046,-0.763,1267695
0.306,-0.368,-1.666,33.878,15.893,-1.588,1271707
0.311,-0.358,-1.656,31.832,12.962,-2.397,1275718
0.320,-0.353,-1.646,29.817,9.756,-3.145,1279729
0.319,-0.351,-1.635,28.046,6.718,-3.542,1283741
0.309,-0.346,-1.625,26.626,4.107,-3.099,1287751
0.298,-0.349,-1.610,25.069,1.557,-2.519,1291762
0.278,-0.354,-1.604,23.954,-0.611,-2.198,1295773
0.271,-0.348,-1.582,22.672,-2.336,-1.725,1299784
0.251,-0.344,-1.567,21.878,-3.038,-1.511,1303797
0.242,-0.340,-1.546,21.130,-2.870,-1.084,1307808
0.224,-0.327,-1.539,20.962,-2.534,-0.611,1311818
0.227,-0.314,-1.516,20.992,-1.969,-0.031,1315829
0.222,-0.305,-1.511,21.298,-1.496,0.214,1319840
0.218,-0.295,-1.496,21.191,-0.580,0.580,1323861
0.219,-0.293,-1.490,21.573,0.473,0.977,1327872
0.207,-0.297,-1.493,21.603,1.252,1.206,1331884
0.206,-0.295,-1.488,21.786,2.214,1.435,1335894
0.207,-0.299,-1.479,21.267,3.344,1.496,1339914
0.203,-0.300,-1.482,20.366,4.122,1.313,1343925
0.205,-0.290,-1.472,19.450,5.008,0.931,1347936
0.191,-0.292,-1.461,18.168,5.863,0.626,1351947
0.183,-0.289,-1.455,17.008,6.870,0.061,1355958
0.184,-0.282,-1.443,15.603,7.679,-0.427,1359969
0.170,-0.264,-1.442,14.473,8.504,-1.191,1363980
0.182,-0.263,-1.424,12.931,9.176,-1.771,1367992
0.174,-0.260,-1.413,11.115,9.771,-2.183,1372003
0.172,-0.262,-1.390,9.618,10.321,-2.916,1376014
0.177,-0.258,-1.385,7.939,10.885,-2.672,1380025
0.181,-0.261,-1.368,6.076,11.282,-2.779,1384036
0.182,-0.256,-1.351,4.489,11.450,-2.779,1388047
0.181,-0.250,-1.337,3.420,11.221,-2.473,1392058
0.185,-0.246,-1.324,2.214,11.267,-2.122,1396069
0.190,-0.236,-1.301,1.038,10.794,-1.618,1400081
0.191,-0.234,-1.283,0.534,11.084,-1.221,1404092
0.187,-0.237,-1.263,0.092,11.099,-0.748,1408103
0.190,-0.238,-1.251,0.351,11.282,-0.122,1412115
0.189,-0.242,-1.256,-0.122,11.847,0.412,1416125
0.190,-0.239,-1.229,-0.229,12.000,0.916,1420136
0.195,-0.244,-1.216,-0.214,11.863,1.435,1424147
0.204,-0.248,-1.213,0.260,11.908,1.725,1428154
0.208,-0.250,-1.203,0.260,11.313,2.153,1432165
0.211,-0.248,-1.197,0.412,10.748,2.718,1436176
0.213,-0.248,-1.190,1.023,10.031,3.267,1440187
0.208,-0.261,-1.190,1.374,9.466,3.878,1444198
0.212,-0.260,-1.192,1.695,8.748,4.351,1448210
0.214,-0.274,-1.176,1.786,8.260,4.672,1452221
0.222,-0.287,-1.168,1.847,7.664,4.962,1456233
0.211,-0.295,-1.163,1.618,7.313,5.191,1460244
0.211,-0.303,-1.150,1.099,6.992,5.374,1464255
0.221,-0.316,-1.165,0.718,6.779,5.267,1468267
0.221,-0.323,-1.168,-0.168,6.580,5.298,1472278
0.224,-0.332,-1.163,-1.206,6.336,5.252,1476289
0.229,-0.335,-1.168,-2.534,5.771,4.702,1480300
0.230,-0.338,-1.155,-3.756,5.115,4.504,1484311
0.223,-0.339,-1.146,-4.565,4.214,4.000,1488323
0.231,-0.337,-1.155,-5.450,3.588,3.695,1492333
0.224,-0.335,-1.150,-6.305,3.008,3.145,1496344
0.227,-0.332,-1.149,-7.267,2.321,2.260,1500355
0.223,-0.328,-1.144,-7.954,1.756,1.527,1504366
0.218,-0.328,-1.138,-8.641,1.221,0.687,1508377
0.222,-0.329,-1.128,-9.405,0.718,-0.122,1512388
0.223,-0.331,-1.129,-10.122,-0.214,-0.748,1516399
0.213,-0.327,-1.131,-10.595,-0.595,-1.176,1520410
0.211,-0.337,-1.116,-10.748,-1.099,-1.496,1524421
0.205,-0.341,-1.115,-11.115,-1.389,-2.092,1528431
0.201,-0.334,-1.115,-10.840,-1.389,-2.229,1532442
0.202,-0.339,-1.101,-10.885,-1.176,-2.290,1536453
0.203,-0.338,-1.108,-10.427,-0.977,-2.031,1540464
0.195,-0.342,-1.096,-9.908,-0.748,-1.679,1544475
0.206,-0.343,-1.089,-9.008,-0.702,-1.374,1548486
0.199,-0.333,-1.082,-7.786,0.611,-1.405,1552497
0.202,-0.331,-1.084,-6.840,0.901,-0.656,1556508
0.205,-0.346,-1.083,-6.366,0.214,0.046,1560519
0.221,-0.344,-1.080,-5.740,0.137,-0.611,1564530
0.219,-0.349,-1.092,-5.817,-0.366,-0.916,1568542
0.212,-0.356,-1.086,-5.664,-1.099,-0.412,1572552
0.214,-0.357,-1.086,-5.466,-1.176,0.000,1576563
0.206,-0.355,-1.092,-5.786,-0.962,0.000,1580574
0.213,-0.364,-1.093,-6.122,-0.611,-0.595,1584585
0.204,-0.364,-1.092,-6.580,-0.015,-1.435,1588596
0.199,-0.365,-1.091,-7.008,0.412,-1.634,1592607
0.195,-0.363,-1.095,-7.634,0.885,-1.786,1596618
0.195,-0.354,-1.087,-7.817,0.901,-2.122,1600629
0.203,-0.353,-1.088,-7.985,0.870,-2.183,1604640
0.209,-0.351,-1.088,-8.076,0.718,-2.427,1608651
0.218,-0.354,-1.082,-8.443,0.351,-2.824,1612671
0.212,-0.345,-1.071,-8.412,0.107,-3.053,1616682
0.208,-0.349,-1.073,-8.168,-0.061,-3.389,1620693
0.201,-0.352,-1.075,-7.924,-0.565,-3.603,1624704
0.201,-0.344,-1.082,-7.618,-0.962,-3.695,1628716
0.214,-0.345,-1.074,-7.191,-1.267,-3.847,1632726
0.218,-0.342,-1.073,-6.672,-1.664,-4.366,1636737
0.214,-0.341,-1.073,-6.244,-1.939,-4.427,1640748
0.213,-0.340,-1.068,-5.802,-2.229,-4.626,1644759
0.212,-0.331,-1.058,-5.023,-2.473,-4.458,1648772
0.200,-0.332,-1.066,-4.641,-2.718,-4.092,1652783
0.201,-0.334,-1.065,-3.878,-2.458,-3.939,1656795
0.203,-0.326,-1.064,-3.344,-2.168,-3.359,1660806
0.196,-0.323,-1.058,-2.733,-1.618,-2.962,1664817
0.187,-0.331,-1.058,-2.122,-0.916,-2.458,1668828
0.194,-0.337,-1.063,-1.939,-0.275,-2.137,1672839
0.205,-0.337,-1.072,-1.710,0.153,-1.634,1676850
0.204,-0.344,-1.069,-1.756,0.534,-1.115,1680861
0.213,-0.343,-1.072,-1.985,0.275,-0.794,1684872
0.216,-0.346,-1.069,-2.260,0.275,-0.366,1688884
0.223,-0.340,-1.074,-2.076,-0.168,-0.260,1692896
0.225,-0.345,-1.068,-2.427,-0.336,-0.260,1696907
0.224,-0.341,-1.063,-2.672,-0.656,-0.260,1700918
0.226,-0.342,-1.063,-2.763,-0.809,-0.534,1704929
0.225,-0.334,-1.074,-3.130,-0.962,-0.901,1708940
0.220,-0.341,-1.062,-3.542,-0.885,-1.099,1712960
0.222,-0.337,-1.063,-3.435,-0.947,-1.328,1716972
0.228,-0.331,-1.065,-3.313,-0.748,-1.664,1720983
0.229,-0.332,-1.054,-3.557,-0.550,-1.481,1724994
0.222,-0.330,-1.060,-3.481,-0.336,-1.588,1729005
0.227,-0.323,-1.061,-3.527,-0.702,-1.435,1733025
0.232,-0.321,-1.066,-3.420,-0.565,-1.313,1737037
0.224,-0.323,-1.068,-3.359,-0.153,-1.099,1741047
0.218,-0.320,-1.067,-3.023,-0.153,-0.840,1745058
0.214,-0.328,-1.065,-2.962,-0.122,-0.046,1749069
0.223,-0.313,-1.063,-2.427,1.863,0.183,1753087
0.212,-0.311,-1.064,-2.000,3.481,-0.336,1757098
0.203,-0.313,-1.056,-1.695,4.229,-0.122,1761109
0.208,-0.326,-1.063,-1.405,4.824,0.702,1765120
0.217,-0.321,-1.060,-1.084,5.481,1.435,1769131
0.235,-0.317,-1.062,-0.656,6.046,1.206,1773141
0.235,-0.312,-1.052,-0.046,6.397,1.466,1777153
0.238,-0.316,-1.050,0.031,5.374,1.664,1781163
0.242,-0.317,-1.057,0.305,4.550,1.527,1785174
0.253,-0.315,-1.051,0.718,3.878,1.405,1789186
0.250,-0.312,-1.053,1.053,3.588,1.252,1793206
0.252,-0.312,-1.052,1.191,3.084,0.763,1797217
0.241,-0.312,-1.067,1.557,2.443,0.718,1801228
0.239,-0.314,-1.057,1.847,2.000,0.290,1805239
0.240,-0.315,-1.062,2.046,1.573,0.092,1809250
0.247,-0.316,-1.061,1.725,1.344,-0.229,1813271
0.243,-0.314,-1.077,1.710,0.779,-0.382,1817282
0.243,-0.315,-1.072,1.420,0.183,-0.809,1821293
0.238,-0.319,-1.068,1.206,-0.153,-0.794,1825305
0.234,-0.317,-1.067,0.595,-0.321,-0.916,1829316
0.226,-0.316,-1.083,0.275,-0.382,-1.115,1833334
0.227,-0.311,-1.088,-0.046,0.122,-1.282,1837344
0.225,-0.315,-1.086,-0.244,0.366,-1.328,1841355
0.231,-0.310,-1.070,-0.336,0.824,-1.313,1845366
0.219,-0.308,-1.083,-0.183,1.374,-1.405,1849377
0.226,-0.310,-1.075,-0.122,1.893,-1.252,1853388
0.223,-0.302,-1.078,0.168,2.458,-1.389,1857399
0.224,-0.302,-1.068,0.580,2.534,-1.221,1861410
0.225,-0.302,-1.076,0.855,2.672,-1.130,1865421
0.228,-0.306,-1.079,1.237,3.130,-0.779,1869432
0.228,-0.307,-1.082,1.527,3.405,-0.626,1873443
0.224,-0.306,-1.084,1.588,3.786,-0.183,1877455
0.227,-0.314,-1.092,1.557,3.969,-0.107,1881465
0.233,-0.317,-1.094,1.160,4.153,0.275,1885477
0.226,-0.317,-1.096,0.962,4.244,0.366,1889488
0.229,-0.320,-1.093,0.504,4.427,0.611,1893498
0.231,-0.323,-1.100,-0.046,4.641,0.641,1897509
0.226,-0.316,-1.091,-0.382,4.565,0.977,1901520
0.233,-0.317,-1.089,-0.794,4.641,0.962,1905531
0.235,-0.320,-1.089,-1.038,4.565,0.947,1909542
0.241,-0.313,-1.092,-1.527,4.458,1.084,1913553
0.242,-0.311,-1.090,-1.710,4.046,0.824,1917565
0.246,-0.308,-1.101,-1.908,3.740,0.672,1921576
0.242,-0.303,-1.078,-1.710,3.450,0.656,1925588
0.243,-0.301,-1.081,-1.481,3.160,0.336,1929599
0.245,-0.307,-1.087,-1.145,2.641,0.183,1933619
0.243,-0.308,-1.089,-1.038,2.351,-0.107,1937630
0.252,-0.312,-1.085,-0.931,2.153,-0.626,1941641
0.249,-0.314,-1.086,-0.870,1.481,-0.947,1945652
0.244,-0.313,-1.101,-1.084,1.099,-1.221,1949663
0.245,-0.319,-1.093,-1.282,0.626,-1.679,1953684
0.244,-0.326,-1.098,-1.542,0.321,-2.031,1957695
0.235,-0.325,-1.104,-1.664,0.122,-2.412,1961707
0.236,-0.321,-1.103,-2.122,0.260,-2.733,1965718
0.231,-0.320,-1.101,-2.489,0.458,-2.718,1969729
0.220,-0.321,-1.107,-2.702,0.779,-2.748,1973741
0.216,-0.323,-1.096,-2.992,1.344,-2.321,1977751
0.218,-0.327,-1.099,-3.115,1.863,-2.275,1981762
0.213,-0.319,-1.105,-3.191,2.748,-2.000,1985773
0.216,-0.313,-1.100,-3.344,3.405,-1.618,1989784
0.223,-0.320,-1.099,-3.267,3.985,-1.191,1993797
0.221,-0.319,-1.100,-3.573,4.519,-0.992,1997808
0.224,-0.328,-1.094,-3.756,4.947,-0.794,2001819
