acc_x,acc_y,acc_z,gyro_x,gyro_y,gyro_z,time
0.323,-0.119,-1.093,0.687,2.916,1.130,0
0.324,-0.121,-1.100,0.947,3.298,1.160,4053
0.328,-0.130,-1.094,1.145,3.588,1.191,8069
0.336,-0.129,-1.092,1.435,4.046,1.053,12080
0.337,-0.134,-1.096,1.221,4.153,0.794,16091
0.335,-0.139,-1.100,1.099,4.397,0.641,20102
0.335,-0.148,-1.100,0.656,4.153,0.504,24113
0.341,-0.148,-1.105,-0.015,4.168,0.015,28124
0.347,-0.152,-1.107,-0.855,3.832,-0.656,32135
0.339,-0.153,-1.104,-1.878,3.344,-1.282,36147
0.350,-0.144,-1.103,-2.809,2.595,-1.893,40157
0.353,-0.145,-1.108,-3.649,1.786,-2.611,44168
0.345,-0.133,-1.109,-4.122,1.053,-3.130,48179
0.344,-0.135,-1.112,-4.641,0.336,-3.771,52190
0.347,-0.125,-1.110,-4.748,-0.168,-4.214,56201
0.338,-0.119,-1.102,-4.550,-0.443,-4.519,60212
0.335,-0.117,-1.097,-4.473,-0.840,-4.687,64223
0.331,-0.115,-1.096,-4.076,-0.870,-4.870,68234
0.327,-0.112,-1.103,-4.015,-1.099,-4.962,72245
0.318,-0.121,-1.104,-3.878,-1.145,-4.794,76256
0.317,-0.112,-1.099,-3.588,-1.252,-4.595,80268
0.317,-0.114,-1.088,-3.496,-1.389,-4.275,84279
0.323,-0.110,-1.093,-3.084,-1.527,-3.924,88290
0.323,-0.116,-1.098,-2.794,-1.511,-3.511,92302
0.313,-0.109,-1.105,-2.366,-1.466,-3.191,96312
0.311,-0.105,-1.098,-1.847,-1.344,-2.687,100323
0.313,-0.110,-1.093,-1.267,-0.931,-2.153,104335
0.310,-0.107,-1.099,-0.763,-0.580,-1.802,108346
0.313,-0.105,-1.096,-0.489,-0.458,-1.679,112357
0.306,-0.115,-1.092,-0.229,-0.107,-1.359,116368
0.297,-0.113,-1.096,-0.153,0.244,-0.901,120379
0.300,-0.113,-1.103,-0.015,0.718,-0.626,124390
0.298,-0.107,-1.099,0.031,1.160,-0.382,128401
0.308,-0.120,-1.106,-0.076,1.282,-0.336,132412
0.310,-0.120,-1.109,-0.275,1.603,0.092,136423
0.316,-0.128,-1.111,-0.351,1.634,0.229,140434
0.324,-0.128,-1.110,-0.656,1.527,0.412,144445
0.332,-0.128,-1.116,-0.885,1.405,0.580,148456
0.333,-0.129,-1.115,-1.496,0.885,0.580,152467
0.331,-0.132,-1.116,-2.244,0.229,0.565,156479
0.335,-0.131,-1.115,-2.733,-0.336,0.351,160490
0.331,-0.133,-1.115,-3.237,-1.206,0.214,164501
0.328,-0.129,-1.111,-3.649,-1.664,0.015,168512
0.333,-0.131,-1.115,-4.183,-2.015,-0.305,172523
0.331,-0.124,-1.106,-4.427,-2.153,-0.580,176534
0.326,-0.121,-1.103,-4.565,-2.305,-0.534,180545
0.324,-0.121,-1.113,-4.656,-2.305,-0.397,184557
0.325,-0.113,-1.105,-4.427,-2.443,-0.550,188567
0.330,-0.111,-1.104,-4.137,-2.229,-0.382,192578
0.326,-0.107,-1.095,-3.679,-2.122,-0.214,196589
0.335,-0.113,-1.106,-3.328,-1.832,0.168,200600
0.324,-0.112,-1.100,-2.855,-1.649,0.382,204611
0.325,-0.115,-1.111,-2.229,-1.267,0.748,208622
0.323,-0.116,-1.099,-1.664,-0.977,1.115,212642
0.328,-0.122,-1.105,-1.435,-0.824,1.435,216654
0.334,-0.116,-1.107,-1.115,-0.748,1.603,220664
0.332,-0.119,-1.109,-1.099,-0.656,1.695,224675
0.336,-0.126,-1.108,-1.023,-0.366,1.832,228686
0.331,-0.123,-1.109,-1.084,-0.443,2.092,232704
0.331,-0.127,-1.101,-1.130,0.061,1.802,236715
0.331,-0.123,-1.106,-1.359,0.122,1.573,240726
0.337,-0.128,-1.102,-1.405,0.305,1.359,244737
0.337,-0.136,-1.107,-1.817,0.366,1.298,248748
0.350,-0.140,-1.095,-2.305,0.336,1.008,252759
0.349,-0.135,-1.110,-2.687,0.275,0.427,256770
0.341,-0.141,-1.122,-3.389,-0.076,-0.076,260781
0.339,-0.137,-1.099,-3.756,-0.198,-0.427,264792
0.342,-0.134,-1.102,-4.305,-0.397,-0.809,268799
0.347,-0.135,-1.113,-4.870,-0.611,-1.053,272810
0.350,-0.133,-1.109,-5.191,-0.824,-1.618,276821
0.354,-0.129,-1.110,-5.374,-1.206,-1.924,280832
0.344,-0.123,-1.105,-5.557,-1.313,-2.076,284843
0.342,-0.122,-1.110,-5.435,-1.359,-2.305,288854
0.335,-0.115,-1.104,-5.191,-1.603,-2.260,292865
0.337,-0.113,-1.100,-4.885,-1.527,-2.351,296876
0.337,-0.106,-1.098,-4.397,-1.389,-2.382,300888
0.333,-0.105,-1.107,-4.046,-1.237,-2.168,304899
0.339,-0.111,-1.107,-3.679,-1.023,-2.153,308910
0.333,-0.110,-1.099,-3.252,-0.794,-1.954,312925
0.323,-0.108,-1.100,-2.947,-0.550,-1.756,316936
0.324,-0.116,-1.112,-2.718,-0.565,-1.374,320947
0.331,-0.115,-1.109,-2.534,-0.229,-1.237,324958
0.326,-0.117,-1.102,-2.397,-0.153,-0.840,328969
0.333,-0.117,-1.109,-2.321,0.275,-0.626,332988
0.333,-0.123,-1.097,-2.489,0.489,-0.565,336999
0.335,-0.124,-1.094,-2.443,0.687,-0.534,341010
0.331,-0.125,-1.099,-2.580,0.931,-0.473,345022
0.327,-0.125,-1.100,-3.038,0.962,-0.611,349033
0.332,-0.126,-1.096,-3.573,1.221,-0.840,353054
0.327,-0.128,-1.102,-3.878,1.237,-0.885,357065
0.329,-0.132,-1.095,-4.397,1.542,-1.252,361076
0.333,-0.133,-1.099,-4.962,1.588,-1.527,365087
0.333,-0.129,-1.108,-5.435,1.695,-1.985,369098
0.343,-0.140,-1.101,-5.847,1.573,-2.473,373110
0.341,-0.129,-1.101,-6.198,1.466,-2.809,377121
0.344,-0.125,-1.102,-6.595,1.145,-3.115,381133
0.335,-0.124,-1.096,-6.519,0.992,-3.328,385144
0.337,-0.118,-1.096,-6.580,0.687,-3.618,389155
0.334,-0.119,-1.092,-6.366,0.672,-3.542,393165
0.329,-0.112,-1.088,-5.863,0.473,-3.847,397176
0.338,-0.105,-1.085,-5.542,0.214,-3.466,401187
0.328,-0.106,-1.085,-4.916,0.351,-3.267,405198
0.327,-0.108,-1.086,-4.366,0.275,-3.145,409209
0.330,-0.104,-1.088,-3.664,0.305,-2.824,413230
0.327,-0.109,-1.083,-3.420,0.198,-2.656,417241
0.327,-0.116,-1.085,-3.160,0.366,-2.305,421253
0.321,-0.119,-1.089,-3.130,0.290,-2.244,425263
0.321,-0.122,-1.081,-3.191,0.290,-2.122,429274
0.319,-0.122,-1.088,-3.344,0.198,-2.061,433295
0.326,-0.119,-1.085,-3.435,0.198,-2.183,437306
0.314,-0.124,-1.084,-3.618,0.275,-2.092,441317
0.316,-0.126,-1.081,-3.817,0.351,-2.290,445328
0.318,-0.125,-1.086,-4.214,0.473,-2.427,449339
0.316,-0.121,-1.088,-4.443,0.397,-2.824,453351
0.318,-0.123,-1.093,-4.565,0.489,-2.763,457362
0.312,-0.130,-1.087,-4.336,0.427,-2.794,461374
0.312,-0.121,-1.089,-4.351,0.519,-2.779,465385
0.308,-0.123,-1.082,-4.443,0.611,-2.672,469396
0.315,-0.127,-1.087,-4.260,0.565,-2.580,473407
0.316,-0.125,-1.082,-4.000,0.656,-2.275,477418
0.315,-0.128,-1.081,-3.756,0.870,-2.076,481429
0.316,-0.119,-1.092,-3.420,0.916,-1.786,485441
0.311,-0.122,-1.085,-2.718,0.977,-1.130,489452
0.313,-0.125,-1.090,-2.214,1.206,-0.931,493463
0.318,-0.128,-1.085,-2.153,1.405,-0.550,497474
0.323,-0.131,-1.089,-1.908,1.527,-0.229,501486
0.323,-0.133,-1.092,-1.802,1.618,-0.137,505497
0.326,-0.136,-1.094,-1.695,1.542,0.183,509508
0.323,-0.137,-1.083,-2.031,1.435,0.198,513519
0.331,-0.138,-1.085,-1.969,1.176,-0.031,517529
0.329,-0.136,-1.083,-2.366,0.870,-0.321,521540
0.331,-0.133,-1.084,-2.672,0.824,-0.611,525551
0.332,-0.135,-1.077,-3.099,0.412,-0.809,529562
0.327,-0.140,-1.079,-3.389,0.321,-1.328,533572
0.326,-0.135,-1.067,-3.771,0.244,-1.405,537583
0.324,-0.132,-1.071,-3.878,-0.092,-1.863,541594
0.324,-0.129,-1.070,-4.183,-0.290,-2.153,545605
0.316,-0.122,-1.057,-4.214,-0.382,-2.183,549617
0.320,-0.124,-1.048,-4.260,-0.443,-2.427,553636
0.312,-0.120,-1.054,-4.122,-0.443,-2.229,557648
0.307,-0.122,-1.047,-4.214,-0.611,-2.031,561659
0.312,-0.117,-1.051,-4.275,-0.580,-1.756,565670
0.311,-0.116,-1.034,-4.183,-0.260,-1.496,569681
0.312,-0.116,-1.033,-3.878,-0.351,-1.405,573702
0.302,-0.114,-1.031,-3.649,-0.031,-1.313,577713
0.301,-0.113,-1.026,-3.359,0.183,-0.916,581724
0.297,-0.109,-1.017,-3.191,0.366,-0.779,585735
0.294,-0.098,-1.016,-2.840,0.534,-0.626,589746
0.295,-0.102,-1.019,-2.534,0.565,-0.534,593756
0.299,-0.114,-1.003,-2.290,0.519,-0.214,597767
0.299,-0.110,-0.997,-2.015,0.275,-0.122,601778
0.298,-0.106,-0.996,-1.740,0.000,0.061,605790
0.296,-0.107,-0.992,-1.603,-0.275,-0.076,609801
0.297,-0.106,-0.969,-1.756,-0.473,0.046,613811
0.285,-0.106,-0.960,-1.878,-0.580,0.137,617821
0.281,-0.115,-0.954,-2.198,-0.595,0.260,621832
0.281,-0.118,-0.949,-2.534,-0.489,0.321,625843
0.280,-0.114,-0.935,-3.130,-0.763,0.214,629854
0.267,-0.112,-0.917,-3.740,-0.733,-0.092,633874
0.260,-0.110,-0.912,-4.641,-0.794,-0.336,637887
0.254,-0.112,-0.891,-5.618,-0.702,-1.023,641898
0.243,-0.104,-0.880,-6.611,-0.840,-1.313,645909
0.234,-0.105,-0.856,-7.756,-0.809,-1.954,649920
0.226,-0.096,-0.835,-9.130,-0.580,-3.038,653931
0.211,-0.096,-0.821,-10.763,-0.534,-4.412,657942
0.197,-0.089,-0.805,-12.244,0.092,-5.649,661953
0.187,-0.075,-0.790,-13.893,0.336,-6.794,665964
0.182,-0.072,-0.773,-15.237,0.107,-7.725,669975
0.187,-0.070,-0.753,-15.710,-0.229,-9.038,673986
0.197,-0.061,-0.736,-15.573,-0.885,-9.756,677998
0.203,-0.064,-0.735,-15.176,-2.153,-9.893,682010
0.217,-0.064,-0.727,-15.084,-4.183,-9.527,686020
0.233,-0.071,-0.723,-14.290,-6.718,-8.947,690031
0.246,-0.080,-0.707,-13.847,-9.527,-8.229,694043
0.248,-0.088,-0.693,-12.962,-12.183,-7.023,698054
0.240,-0.081,-0.682,-11.924,-14.458,-5.542,702065
0.233,-0.075,-0.667,-10.763,-16.000,-3.985,706076
0.215,-0.068,-0.656,-9.740,-17.038,-2.412,710087
0.206,-0.068,-0.656,-8.336,-17.298,-1.298,714098
0.196,-0.072,-0.648,-6.824,-16.824,-0.458,718106
0.187,-0.064,-0.648,-5.344,-15.802,0.031,722117
0.190,-0.059,-0.632,-3.450,-14.076,0.061,726128
0.184,-0.052,-0.646,-1.649,-11.710,0.000,730139
0.189,-0.048,-0.656,0.046,-8.626,-0.779,734150
0.179,-0.051,-0.655,1.069,-5.496,-1.893,738157
0.178,-0.056,-0.664,2.061,-1.649,-3.115,742168
0.176,-0.055,-0.674,2.992,2.260,-4.870,746179
0.182,-0.062,-0.668,3.511,5.832,-7.008,750190
0.189,-0.061,-0.669,3.771,9.115,-9.374,754201
0.203,-0.068,-0.676,3.924,12.290,-11.802,758213
0.205,-0.074,-0.675,3.771,14.794,-14.137,762224
0.208,-0.074,-0.685,3.786,16.275,-16.015,766236
0.218,-0.073,-0.690,3.450,17.313,-18.107,770247
0.238,-0.083,-0.690,3.313,17.084,-19.771,774258
0.243,-0.078,-0.692,2.916,16.275,-21.511,778270
0.248,-0.079,-0.680,3.176,15.084,-22.489,782281
0.255,-0.070,-0.686,3.832,12.702,-23.191,786292
0.256,-0.055,-0.679,5.588,10.489,-23.527,790303
0.263,-0.048,-0.689,7.725,8.153,-23.206,794314
0.261,-0.032,-0.699,10.504,5.939,-21.603,798326
0.265,-0.034,-0.719,13.802,3.771,-19.679,802336
0.254,-0.044,-0.735,17.313,2.061,-16.901,806347
0.251,-0.053,-0.770,21.282,0.779,-13.160,810358
0.244,-0.059,-0.780,24.687,0.305,-9.145,814369
0.238,-0.059,-0.800,28.122,-0.183,-5.496,818380
0.238,-0.075,-0.818,31.756,0.260,-1.420,822391
0.220,-0.097,-0.836,34.992,1.053,2.565,826402
0.225,-0.106,-0.859,37.969,1.969,6.260,830413
0.225,-0.119,-0.873,40.275,3.649,9.527,834424
0.222,-0.137,-0.905,42.076,6.137,12.137,838434
0.222,-0.144,-0.932,43.573,8.916,14.458,842445
0.221,-0.159,-0.956,44.916,11.878,15.954,846456
0.242,-0.166,-0.983,46.443,14.641,16.763,850467
0.264,-0.167,-0.989,47.893,17.084,16.702,854478
0.296,-0.172,-1.012,49.557,19.191,15.817,858489
0.327,-0.193,-1.046,50.840,20.992,14.977,862500
0.342,-0.198,-1.071,52.046,21.924,14.214,866511
0.368,-0.217,-1.095,52.748,21.771,13.023,870522
0.386,-0.219,-1.122,53.603,21.160,12.305,874533
0.414,-0.233,-1.154,54.366,19.908,10.947,878545
0.444,-0.251,-1.165,55.008,18.458,9.359,882555
0.458,-0.252,-1.175,55.649,15.817,8.092,886566
0.477,-0.268,-1.193,55.939,13.252,7.405,890577
0.481,-0.276,-1.218,56.214,9.710,6.718,894588
0.494,-0.281,-1.221,56.885,6.290,6.366,898599
0.503,-0.281,-1.229,56.794,2.748,5.832,902610
0.486,-0.290,-1.215,57.374,-0.840,5.740,906621
0.476,-0.293,-1.215,58.046,-3.985,5.969,910632
0.453,-0.295,-1.211,59.328,-6.153,6.244,914643
0.432,-0.291,-1.224,60.214,-8.336,6.550,918654
0.426,-0.300,-1.230,61.695,-9.328,6.748,922674
0.420,-0.305,-1.234,63.237,-9.328,6.702,926685
0.424,-0.315,-1.251,64.656,-9.863,7.053,930696
0.412,-0.323,-1.244,66.229,-10.275,7.634,934707
0.407,-0.344,-1.256,67.298,-11.252,8.260,938719
0.415,-0.351,-1.270,67.985,-12.183,8.916,942729
0.409,-0.377,-1.277,68.168,-12.595,8.702,946740
0.394,-0.392,-1.287,68.504,-12.733,8.626,950751
0.387,-0.386,-1.285,69.008,-12.473,8.504,954762
0.385,-0.392,-1.296,69.618,-12.412,7.939,958775
0.393,-0.399,-1.303,70.489,-12.962,7.282,962786
0.407,-0.400,-1.302,71.328,-13.893,6.595,966798
0.414,-0.399,-1.330,72.718,-14.992,6.489,970809
0.425,-0.406,-1.356,74.336,-16.489,7.496,974820
0.431,-0.405,-1.379,76.031,-17.649,8.427,978831
0.442,-0.416,-1.394,77.282,-18.702,10.595,982842
0.448,-0.433,-1.410,78.519,-19.603,12.672,986853
0.445,-0.456,-1.416,78.580,-20.534,14.214,990864
0.421,-0.471,-1.445,77.878,-20.183,15.740,994875
0.421,-0.499,-1.458,76.519,-19.878,17.267,998887
0.404,-0.506,-1.466,74.550,-18.733,18.260,1002899
0.396,-0.507,-1.482,72.504,-17.649,18.840,1006910
0.399,-0.516,-1.488,70.397,-16.794,19.313,1010921
0.414,-0.502,-1.493,68.855,-16.122,19.481,1014932
0.423,-0.501,-1.498,67.008,-15.847,19.298,1018943
0.439,-0.495,-1.508,64.962,-16.153,18.840,1022963
0.433,-0.497,-1.506,63.313,-16.550,18.336,1026975
0.433,-0.496,-1.498,61.710,-17.344,17.618,1030986
0.434,-0.490,-1.504,59.710,-18.153,16.397,1034997
0.436,-0.497,-1.501,57.557,-19.176,15.649,1039008
0.434,-0.494,-1.497,55.221,-19.679,14.321,1043028
0.424,-0.503,-1.497,52.748,-19.756,12.809,1047040
0.402,-0.506,-1.507,50.321,-19.618,11.405,1051050
0.399,-0.509,-1.505,47.481,-19.282,9.878,1055061
0.398,-0.514,-1.497,44.595,-18.931,8.427,1059072
0.394,-0.508,-1.483,41.924,-18.748,7.145,1063090
0.391,-0.506,-1.465,39.313,-17.878,6.550,1067101
0.375,-0.499,-1.460,36.992,-16.626,5.969,1071112
0.350,-0.499,-1.447,34.534,-15.435,5.557,1075123
0.340,-0.491,-1.433,32.427,-13.511,5.634,1079134
0.327,-0.485,-1.428,30.427,-11.298,5.664,1083144
0.333,-0.482,-1.419,28.504,-8.809,5.450,1087156
0.342,-0.484,-1.418,26.046,-7.084,5.176,1091166
0.335,-0.492,-1.405,23.084,-5.573,4.641,1095177
0.336,-0.486,-1.407,20.092,-4.092,4.229,1099189
0.323,-0.484,-1.391,17.023,-2.855,3.802,1103209
0.313,-0.478,-1.375,14.137,-1.298,3.084,1107220
0.316,-0.476,-1.364,11.237,-0.061,1.969,1111231
0.314,-0.470,-1.352,8.656,1.145,1.313,1115242
0.324,-0.461,-1.339,6.336,1.985,0.550,1119253
0.320,-0.452,-1.313,3.771,2.702,0.015,1123274
0.322,-0.444,-1.298,1.893,3.084,-0.336,1127285
0.316,-0.438,-1.275,0.000,3.389,-0.718,1131296
0.310,-0.417,-1.260,-1.328,3.649,-0.931,1135308
0.303,-0.405,-1.237,-2.290,4.076,-1.191,1139319
0.295,-0.390,-1.220,-2.595,4.687,-0.840,1143337
0.295,-0.380,-1.191,-3.023,5.267,-0.855,1147347
0.297,-0.378,-1.178,-2.901,6.137,-0.992,1151358
0.301,-0.369,-1.160,-2.794,6.458,-1.084,1155369
0.299,-0.362,-1.144,-2.550,6.656,-1.313,1159380
0.308,-0.365,-1.137,-2.290,6.061,-1.863,1163391
0.321,-0.366,-1.120,-2.412,5.038,-2.397,1167402
0.306,-0.370,-1.113,-2.504,3.756,-2.870,1171413
0.301,-0.363,-1.101,-2.870,2.443,-3.282,1175424
0.289,-0.363,-1.096,-3.008,1.099,-3.969,1179435
0.287,-0.370,-1.101,-3.221,-0.275,-4.214,1183446
0.284,-0.357,-1.090,-3.710,-1.435,-4.305,1187458
0.284,-0.359,-1.080,-4.046,-2.290,-4.305,1191468
0.263,-0.357,-1.068,-4.504,-2.458,-3.863,1195480
0.250,-0.360,-1.068,-4.702,-2.382,-3.313,1199491
0.240,-0.367,-1.063,-5.191,-1.924,-2.504,1203501
0.235,-0.368,-1.065,-5.344,-1.221,-1.939,1207512
0.237,-0.362,-1.057,-5.740,-0.015,-1.328,1211523
0.239,-0.363,-1.059,-5.786,1.160,-0.702,1215534
0.239,-0.363,-1.050,-5.649,2.137,-0.092,1219545
0.250,-0.363,-1.055,-5.405,2.748,0.366,1223556
0.253,-0.363,-1.052,-4.855,2.962,0.519,1227568
0.261,-0.361,-1.045,-4.427,2.962,0.550,1231579
0.264,-0.362,-1.045,-4.244,2.901,0.565,1235591
0.268,-0.369,-1.052,-3.924,2.366,0.443,1239602
0.277,-0.361,-1.047,-3.466,1.802,0.229,1243622
0.286,-0.368,-1.045,-2.931,1.267,0.305,1247633
0.289,-0.365,-1.038,-2.473,0.885,-0.137,1251644
0.281,-0.370,-1.033,-2.046,0.733,-0.061,1255655
0.286,-0.377,-1.039,-1.924,0.214,-0.305,1259666
0.283,-0.376,-1.051,-1.893,-0.137,-0.336,1263687
0.278,-0.376,-1.043,-1.863,-0.382,-0.580,1267698
0.273,-0.381,-1.052,-1.954,-0.397,-0.580,1271710
0.277,-0.375,-1.048,-1.954,-0.458,-0.702,1275721
0.278,-0.379,-1.055,-2.183,-0.458,-0.885,1279732
0.272,-0.381,-1.058,-2.397,-0.366,-0.779,1283744
0.268,-0.388,-1.058,-2.901,-0.366,-0.794,1287754
0.271,-0.396,-1.066,-3.573,-0.473,-0.305,1291765
0.274,-0.395,-1.058,-4.031,-0.397,-0.153,1295776
0.272,-0.390,-1.069,-4.534,-0.260,0.412,1299787
0.276,-0.390,-1.053,-5.008,-0.458,0.718,1303800
0.269,-0.397,-1.053,-5.466,-0.244,1.344,1307811
0.272,-0.390,-1.061,-5.649,-0.107,1.496,1311821
0.275,-0.391,-1.053,-5.603,0.137,1.924,1315832
0.280,-0.385,-1.066,-5.542,0.733,2.183,1319843
0.279,-0.386,-1.051,-5.313,1.359,2.412,1323864
0.280,-0.389,-1.064,-5.237,1.603,2.702,1327875
0.282,-0.383,-1.056,-5.176,1.832,2.840,1331887
0.284,-0.386,-1.059,-4.916,2.244,2.931,1335897
0.285,-0.396,-1.060,-5.053,2.489,2.748,1339917
0.292,-0.399,-1.056,-5.344,2.351,2.565,1343928
0.287,-0.403,-1.061,-5.802,1.985,2.214,1347939
0.291,-0.400,-1.060,-6.244,2.015,1.985,1351950
0.293,-0.400,-1.065,-6.550,2.183,1.557,1355961
0.289,-0.400,-1.052,-6.733,2.229,1.328,1359972
0.291,-0.396,-1.055,-6.916,2.473,0.855,1363983
0.293,-0.401,-1.045,-7.145,2.809,0.275,1367995
0.290,-0.394,-1.051,-7.145,3.374,-0.076,1372006
0.283,-0.396,-1.048,-7.282,3.832,-0.229,1376017
0.287,-0.390,-1.047,-7.221,4.137,-0.305,1380028
0.291,-0.388,-1.044,-7.130,4.641,-0.748,1384039
0.298,-0.393,-1.046,-7.053,4.489,-0.687,1388050
0.303,-0.390,-1.040,-6.718,4.244,-0.641,1392061
0.298,-0.396,-1.035,-6.672,3.939,-0.519,1396072
0.299,-0.397,-1.045,-6.641,3.298,-0.458,1400084
0.298,-0.400,-1.042,-6.794,2.992,-0.229,1404095
0.297,-0.396,-1.041,-7.206,2.595,-0.137,1408106
0.295,-0.396,-1.045,-7.237,2.275,-0.153,1412118
0.288,-0.406,-1.035,-7.496,2.122,-0.137,1416128
0.293,-0.402,-1.032,-7.740,1.740,0.015,1420139
0.294,-0.397,-1.041,-7.756,1.802,0.122,1424150
0.288,-0.403,-1.050,-7.985,1.832,0.092,1428157
0.282,-0.399,-1.049,-8.000,1.832,0.107,1432168
0.288,-0.400,-1.035,-8.000,2.214,-0.183,1436179
0.288,-0.400,-1.025,-7.969,2.534,-0.244,1440190
0.290,-0.394,-1.035,-7.725,2.916,-0.504,1444201
0.290,-0.402,-1.032,-7.466,3.176,-0.611,1448213
0.292,-0.398,-1.032,-7.420,3.282,-0.519,1452224
0.293,-0.398,-1.036,-7.252,3.710,-0.550,1456236
0.287,-0.408,-1.031,-7.160,4.076,-0.779,1460247
0.283,-0.399,-1.024,-6.733,4.382,-1.038,1464258
0.285,-0.407,-1.027,-6.580,4.870,-1.084,1468270
0.296,-0.407,-1.029,-6.443,5.145,-1.359,1472281
0.289,-0.405,-1.032,-6.351,5.527,-1.817,1476292
0.292,-0.403,-1.032,-6.351,5.786,-2.214,1480303
0.294,-0.402,-1.039,-6.260,6.000,-2.275,1484314
0.296,-0.402,-1.028,-6.183,6.168,-2.672,1488326
0.301,-0.412,-1.029,-6.260,5.969,-2.855,1492336
0.300,-0.408,-1.032,-6.321,5.557,-3.084,1496347
0.299,-0.407,-1.025,-6.412,4.870,-3.344,1500358
0.300,-0.413,-1.038,-6.519,4.214,-3.664,1504369
0.295,-0.406,-1.026,-6.916,3.634,-3.634,1508380
0.293,-0.406,-1.036,-6.916,3.130,-3.420,1512391
0.285,-0.408,-1.040,-7.160,2.824,-3.557,1516402
0.287,-0.399,-1.031,-7.115,2.519,-3.557,1520413
0.297,-0.398,-1.022,-6.885,2.321,-3.450,1524424
0.289,-0.399,-1.017,-6.855,2.260,-3.496,1528434
0.289,-0.401,-1.016,-6.443,2.000,-3.252,1532445
0.291,-0.392,-1.024,-5.832,1.908,-3.267,1536456
0.291,-0.391,-1.020,-5.328,1.863,-3.450,1540467
0.290,-0.390,-1.015,-4.718,1.481,-3.618,1544478
0.291,-0.386,-1.009,-4.137,1.038,-3.832,1548489
0.292,-0.390,-1.021,-3.405,0.885,-4.275,1552500
0.289,-0.394,-1.013,-2.855,0.534,-4.687,1556511
0.282,-0.387,-1.018,-2.504,0.260,-5.237,1560522
0.283,-0.390,-1.021,-2.260,0.351,-6.000,1564533
0.281,-0.393,-1.033,-2.351,0.214,-6.504,1568545
0.284,-0.393,-1.035,-2.626,-0.015,-6.885,1572555
0.275,-0.397,-1.025,-2.626,-0.122,-7.130,1576566
0.265,-0.385,-1.028,-2.779,-0.061,-7.267,1580577
0.266,-0.390,-1.025,-2.870,-0.031,-7.344,1584588
0.264,-0.385,-1.028,-2.611,0.397,-6.855,1588599
0.261,-0.381,-1.032,-2.840,0.443,-6.443,1592610
0.264,-0.381,-1.027,-2.779,0.443,-6.137,1596621
0.259,-0.378,-1.019,-2.672,0.290,-5.405,1600632
0.266,-0.382,-1.017,-2.672,0.107,-5.023,1604643
0.256,-0.382,-1.031,-2.702,-0.107,-4.458,1608654
0.261,-0.383,-1.023,-2.901,-0.290,-3.985,1612674
0.260,-0.382,-1.022,-2.870,-0.290,-3.450,1616685
0.251,-0.381,-1.002,-2.824,-0.229,-2.855,1620696
0.255,-0.374,-1.030,-2.489,-0.473,-2.260,1624707
0.260,-0.372,-1.025,-2.351,-0.565,-1.939,1628719
0.267,-0.381,-1.028,-2.229,-0.962,-1.832,1632729
0.265,-0.378,-1.021,-1.649,-1.405,-1.695,1636740
0.275,-0.375,-1.030,-1.252,-1.618,-1.588,1640751
0.265,-0.375,-1.034,-0.977,-2.168,-1.542,1644762
0.267,-0.374,-1.031,-0.595,-2.595,-1.557,1648775
0.281,-0.372,-1.037,-0.366,-3.115,-1.649,1652786
0.282,-0.380,-1.040,-0.168,-3.466,-1.542,1656798
0.279,-0.386,-1.034,-0.153,-3.771,-1.313,1660809
0.275,-0.388,-1.038,-0.397,-3.695,-1.405,1664820
0.282,-0.390,-1.047,-0.702,-3.679,-1.573,1668831
0.279,-0.397,-1.055,-1.115,-3.420,-1.786,1672842
0.275,-0.396,-1.049,-1.450,-3.069,-1.679,1676853
0.271,-0.395,-1.052,-1.496,-2.656,-1.603,1680864
0.281,-0.386,-1.052,-1.618,-2.061,-1.847,1684875
0.282,-0.391,-1.041,-1.725,-1.603,-1.847,1688887
0.283,-0.392,-1.039,-1.740,-1.221,-2.015,1692899
0.285,-0.388,-1.042,-1.756,-0.763,-2.198,1696910
0.279,-0.398,-1.042,-1.924,-0.412,-2.000,1700921
0.284,-0.394,-1.046,-2.244,-0.153,-2.229,1704932
0.297,-0.395,-1.052,-2.595,0.244,-2.198,1708943
0.290,-0.392,-1.049,-2.779,0.427,-2.168,1712963
0.290,-0.393,-1.052,-2.824,0.534,-2.031,1716975
0.291,-0.387,-1.052,-3.008,0.412,-2.153,1720986
0.294,-0.391,-1.054,-3.008,0.153,-2.107,1724997
0.292,-0.384,-1.046,-3.038,-0.305,-2.107,1729008
0.287,-0.383,-1.043,-3.053,-0.550,-1.954,1733028
0.293,-0.381,-1.044,-3.176,-0.733,-1.893,1737040
0.288,-0.385,-1.035,-3.328,-0.504,-1.573,1741050
0.286,-0.383,-1.037,-3.252,-0.351,-1.069,1745061
0.279,-0.384,-1.044,-3.481,-0.305,-1.053,1749072
0.287,-0.390,-1.038,-3.389,-0.061,-0.794,1753090
0.286,-0.389,-1.032,-3.298,0.351,-0.595,1757101
0.282,-0.388,-1.039,-3.267,0.550,-0.290,1761112
0.281,-0.386,-1.040,-3.466,0.779,-0.153,1765123
0.287,-0.387,-1.037,-2.992,1.176,-0.046,1769134
0.287,-0.391,-1.020,-2.840,1.405,0.031,1773144
0.282,-0.392,-1.030,-2.977,1.786,0.000,1777156
0.281,-0.387,-1.030,-2.641,2.046,0.015,1781166
0.293,-0.393,-1.023,-2.702,2.412,-0.137,1785177
0.294,-0.390,-1.029,-2.504,2.611,-0.580,1789189
0.299,-0.393,-1.028,-2.534,2.626,-0.489,1793209
0.304,-0.398,-1.023,-2.718,2.427,-0.870,1797220
0.301,-0.390,-1.031,-2.855,2.153,-0.901,1801231
0.294,-0.391,-1.030,-2.855,1.893,-1.160,1805242
0.295,-0.391,-1.024,-3.069,1.939,-1.145,1809253
0.293,-0.391,-1.036,-3.023,1.817,-1.145,1813274
0.292,-0.392,-1.034,-2.885,2.046,-1.099,1817285
0.292,-0.384,-1.024,-2.840,2.031,-1.084,1821296
0.289,-0.379,-1.029,-2.656,1.908,-1.099,1825308
0.290,-0.388,-1.037,-2.916,1.740,-0.916,1829319
0.300,-0.383,-1.028,-2.656,1.389,-0.519,1833337
0.295,-0.379,-1.040,-2.702,0.824,-0.504,1837347
0.297,-0.376,-1.031,-2.702,0.550,-0.244,1841358
0.290,-0.383,-1.027,-2.641,0.092,-0.183,1845369
0.293,-0.379,-1.027,-2.519,0.031,-0.076,1849380
0.283,-0.380,-1.030,-2.382,-0.015,0.198,1853391
0.288,-0.379,-1.031,-2.275,0.076,0.412,1857402
0.281,-0.386,-1.022,-1.939,0.275,0.427,1861413
0.289,-0.381,-1.021,-1.603,0.244,0.336,1865424
0.283,-0.380,-1.036,-1.313,0.427,0.397,1869435
0.292,-0.378,-1.032,-1.313,0.076,0.351,1873446
0.288,-0.376,-1.032,-0.977,-0.107,0.290,1877458
0.288,-0.385,-1.031,-0.977,-0.382,0.366,1881468
0.286,-0.391,-1.035,-1.115,-0.504,0.168,1885480
0.292,-0.381,-1.039,-1.237,-0.275,0.031,1889491
0.277,-0.386,-1.033,-1.206,0.183,0.137,1893501
0.281,-0.395,-1.034,-1.298,0.840,-0.260,1897512
0.280,-0.393,-1.037,-1.496,1.267,-0.275,1901523
0.283,-0.390,-1.044,-1.649,1.557,-0.489,1905534
0.291,-0.399,-1.046,-1.908,1.679,-0.550,1909545
0.294,-0.393,-1.044,-1.985,1.603,-0.443,1913556
0.297,-0.395,-1.053,-2.092,1.267,-0.748,1917568
0.289,-0.388,-1.043,-2.198,1.053,-0.443,1921579
0.300,-0.393,-1.044,-2.260,0.977,-0.626,1925591
0.291,-0.393,-1.048,-2.366,0.672,-0.809,1929602
0.294,-0.392,-1.049,-2.260,0.473,-0.947,1933622
0.295,-0.389,-1.042,-2.122,0.275,-1.099,1937633
0.298,-0.391,-1.039,-2.183,0.168,-1.145,1941644
0.288,-0.389,-1.038,-2.198,-0.046,-1.389,1945655
0.288,-0.392,-1.045,-2.198,0.015,-1.221,1949666
0.292,-0.393,-1.039,-2.107,-0.153,-1.496,1953687
0.295,-0.392,-1.038,-2.031,-0.137,-1.405,1957698
0.294,-0.390,-1.041,-2.046,-0.198,-1.511,1961710
0.295,-0.390,-1.051,-2.168,-0.351,-1.374,1965721
0.293,-0.396,-1.044,-2.366,-0.626,-1.435,1969732
0.296,-0.396,-1.038,-2.366,-0.473,-1.695,1973744
0.292,-0.392,-1.038,-2.504,-0.595,-1.756,1977754
0.293,-0.398,-1.048,-2.595,-0.458,-2.015,1981765
0.293,-0.393,-1.040,-2.366,-0.275,-2.000,1985776
0.289,-0.394,-1.044,-2.427,-0.275,-2.260,1989787
0.292,-0.392,-1.050,-2.336,0.107,-2.794,1993800
0.281,-0.401,-1.048,-2.565,0.137,-2.824,1997811
0.285,-0.394,-1.041,-2.489,0.519,-2.824,2001822
