acc_x,acc_y,acc_z,gyro_x,gyro_y,gyro_z,time
0.320,0.039,-1.095,-5.878,2.718,-0.458,0
0.327,0.036,-1.100,-5.649,2.748,-0.366,4051
0.324,0.044,-1.102,-5.344,2.855,-0.565,8065
0.321,0.034,-1.094,-5.740,2.733,-0.443,12076
0.324,0.030,-1.094,-6.198,2.382,-0.397,16087
0.326,0.038,-1.094,-6.412,1.802,-0.489,20099
0.323,0.032,-1.092,-6.366,1.573,-0.687,24110
0.324,0.031,-1.097,-6.244,0.931,-0.611,28120
0.328,0.039,-1.090,-6.092,0.718,-0.656,32131
0.311,0.045,-1.089,-5.954,0.489,-0.748,36142
0.310,0.042,-1.093,-5.863,0.504,-0.885,40153
0.310,0.051,-1.090,-5.802,0.550,-0.718,44164
0.313,0.051,-1.098,-5.725,0.779,-0.595,48175
0.305,0.047,-1.090,-5.634,1.023,-0.275,52186
0.305,0.046,-1.082,-5.817,1.252,-0.351,56197
0.307,0.044,-1.090,-5.435,1.313,-0.015,60208
0.305,0.046,-1.089,-5.405,1.679,0.092,64219
0.322,0.046,-1.092,-5.573,1.527,0.214,68230
0.315,0.048,-1.092,-5.695,1.527,0.489,72241
0.321,0.044,-1.096,-5.954,1.023,0.687,76252
0.321,0.045,-1.091,-6.092,0.687,0.656,80263
0.323,0.036,-1.094,-6.061,0.458,0.412,84274
0.319,0.041,-1.091,-6.076,0.137,0.489,88285
0.323,0.037,-1.087,-6.198,0.260,0.305,92296
0.319,0.047,-1.089,-6.168,0.305,0.076,96307
0.314,0.042,-1.095,-6.183,0.489,0.198,100319
0.316,0.045,-1.088,-6.275,1.038,0.031,104330
0.310,0.048,-1.080,-6.214,1.832,-0.092,108342
0.309,0.047,-1.089,-5.954,2.031,0.000,112353
0.307,0.052,-1.079,-5.603,2.565,0.015,116364
0.306,0.049,-1.085,-5.466,2.931,0.107,120375
0.311,0.050,-1.078,-5.588,3.160,0.015,124386
0.312,0.044,-1.093,-5.939,3.115,-0.092,128397
0.324,0.052,-1.086,-6.183,2.870,-0.153,132409
0.325,0.046,-1.082,-6.443,2.137,-0.214,136420
0.326,0.042,-1.090,-6.626,1.420,-0.595,140432
0.331,0.044,-1.095,-6.550,0.870,-0.763,144443
0.321,0.047,-1.087,-6.382,0.260,-0.977,148453
0.330,0.041,-1.086,-6.260,-0.489,-0.855,152465
0.316,0.045,-1.091,-6.260,-0.733,-0.809,156476
0.315,0.043,-1.086,-6.275,-0.809,-0.901,160487
0.317,0.049,-1.090,-6.443,-0.519,-0.687,164499
0.304,0.045,-1.091,-6.275,-0.137,-0.580,168509
0.309,0.046,-1.084,-6.061,0.244,-0.489,172520
0.309,0.053,-1.094,-5.908,0.733,-0.382,176531
0.309,0.052,-1.086,-5.634,1.099,0.031,180542
0.306,0.052,-1.090,-5.679,1.756,0.198,184553
0.309,0.054,-1.094,-5.664,2.061,0.458,188564
0.313,0.044,-1.089,-6.076,2.198,0.198,192575
0.308,0.047,-1.077,-6.427,2.260,-0.015,196587
0.318,0.039,-1.084,-6.718,2.443,-0.260,200598
0.314,0.043,-1.087,-6.931,2.260,-0.443,204609
0.322,0.040,-1.088,-7.145,2.290,-0.962,208621
0.326,0.046,-1.098,-7.344,2.076,-1.145,212642
0.328,0.046,-1.081,-7.176,2.137,-1.328,216653
0.323,0.043,-1.076,-7.053,2.153,-1.557,220664
0.322,0.047,-1.096,-7.160,0.748,-1.191,224675
0.328,0.050,-1.093,-7.237,0.076,-1.298,228686
0.328,0.054,-1.089,-6.626,-0.046,-1.374,232704
0.324,0.042,-1.092,-6.061,-0.015,-1.802,236715
0.314,0.054,-1.086,-5.664,-0.214,-1.115,240726
0.310,0.054,-1.086,-5.511,0.122,-1.115,244737
0.306,0.050,-1.086,-5.542,-0.168,-0.962,248744
0.312,0.050,-1.089,-5.542,-0.366,-0.840,252756
0.321,0.046,-1.093,-5.817,-0.382,-0.687,256766
0.318,0.045,-1.090,-5.832,-0.504,-1.023,260777
0.315,0.041,-1.091,-5.863,-0.412,-0.763,264788
0.317,0.042,-1.098,-5.924,-0.321,-0.672,268795
0.318,0.051,-1.094,-5.985,0.076,-0.626,272806
0.318,0.049,-1.104,-6.382,0.031,-0.977,276818
0.318,0.049,-1.095,-6.305,0.229,-1.008,280828
0.320,0.052,-1.099,-6.061,0.092,-1.252,284839
0.319,0.056,-1.077,-5.588,0.031,-1.221,288851
0.323,0.048,-1.088,-5.603,0.183,-1.328,292861
0.320,0.046,-1.082,-5.924,0.366,-1.145,296872
0.320,0.042,-1.097,-6.473,0.855,-1.405,300883
0.323,0.038,-1.094,-7.053,1.313,-1.771,304894
0.314,0.042,-1.099,-7.924,1.863,-1.985,308905
0.318,0.038,-1.095,-7.802,2.000,-1.847,312921
0.321,0.042,-1.091,-7.725,2.366,-1.954,316931
0.312,0.056,-1.084,-7.450,2.779,-1.771,320942
0.312,0.053,-1.096,-7.084,3.038,-1.725,324953
0.312,0.059,-1.089,-6.718,3.038,-1.664,328964
0.310,0.062,-1.082,-6.458,2.901,-1.450,332984
0.320,0.057,-1.098,-6.473,2.504,-1.084,336995
0.313,0.063,-1.089,-6.244,1.985,-0.992,341007
0.324,0.054,-1.083,-5.725,1.313,-0.718,345018
0.327,0.054,-1.090,-5.573,0.504,-0.580,349029
0.325,0.053,-1.087,-5.573,-0.183,-0.565,353050
0.321,0.052,-1.083,-5.847,-0.779,-0.489,357061
0.324,0.050,-1.087,-6.076,-1.511,-0.366,361072
0.321,0.046,-1.080,-6.626,-1.542,-0.458,365083
0.316,0.054,-1.079,-6.779,-1.573,-0.366,369094
0.318,0.053,-1.083,-6.794,-1.237,-0.427,373106
0.314,0.042,-1.087,-6.870,-0.977,-0.656,377117
0.308,0.051,-1.084,-7.069,-0.779,-0.672,381128
0.310,0.048,-1.084,-7.298,-0.076,-0.855,385139
0.312,0.050,-1.080,-7.878,0.076,-1.252,389150
0.312,0.048,-1.084,-8.260,0.809,-1.267,393161
0.314,0.047,-1.096,-8.702,1.038,-1.176,397172
0.311,0.046,-1.088,-8.718,1.282,-1.450,401183
0.312,0.054,-1.090,-8.855,1.695,-1.435,405194
0.309,0.051,-1.086,-8.443,1.557,-1.405,409205
0.309,0.063,-1.071,-8.321,1.924,-1.252,413226
0.307,0.070,-1.084,-7.863,1.344,-1.023,417237
0.307,0.077,-1.074,-7.573,1.374,-0.763,421248
0.314,0.068,-1.080,-7.008,1.420,-0.443,425259
0.314,0.064,-1.078,-6.489,1.634,-0.260,429270
0.321,0.066,-1.078,-6.137,1.298,-0.046,433291
0.312,0.067,-1.076,-5.710,1.573,0.031,437303
0.316,0.062,-1.079,-5.557,0.962,0.061,441314
0.317,0.052,-1.073,-5.664,0.748,-0.092,445325
0.315,0.062,-1.074,-6.031,0.458,-0.137,449337
0.319,0.056,-1.071,-6.214,-0.122,-0.183,453348
0.317,0.048,-1.063,-6.366,-0.137,-0.351,457359
0.308,0.051,-1.077,-6.244,-0.519,-0.305,461370
0.315,0.056,-1.071,-5.817,-0.443,-0.626,465381
0.312,0.054,-1.070,-5.908,-0.855,-0.427,469392
0.310,0.053,-1.069,-5.893,-0.748,-0.336,473404
0.306,0.058,-1.074,-5.878,-0.656,-0.733,477414
0.305,0.061,-1.075,-5.649,-0.321,-0.336,481425
0.302,0.062,-1.066,-5.725,-0.489,-0.397,485436
0.290,0.065,-1.065,-5.252,-0.015,-0.076,489447
0.296,0.063,-1.070,-4.733,0.214,0.229,493458
0.293,0.061,-1.067,-4.321,0.595,0.305,497469
0.303,0.067,-1.076,-3.908,0.840,0.351,501480
0.307,0.068,-1.071,-3.664,0.901,0.076,505491
0.308,0.061,-1.076,-3.374,1.008,0.489,509502
0.310,0.062,-1.085,-2.901,1.084,0.672,513513
0.316,0.062,-1.081,-2.534,0.702,0.718,517524
0.320,0.059,-1.081,-1.832,0.534,1.160,521536
0.322,0.058,-1.084,-1.359,0.275,1.145,525546
0.314,0.055,-1.085,-1.008,0.412,1.313,529557
0.314,0.054,-1.089,-1.191,0.382,0.855,533567
0.310,0.050,-1.086,-1.389,0.443,0.931,537578
0.306,0.046,-1.095,-1.969,0.992,0.718,541589
0.306,0.048,-1.105,-2.412,0.992,0.550,545600
0.302,0.042,-1.096,-2.794,1.344,0.305,549611
0.321,0.045,-1.096,-3.374,1.481,0.092,553632
0.309,0.049,-1.095,-3.435,1.389,0.107,557643
0.314,0.046,-1.102,-3.710,0.962,0.183,561654
0.320,0.048,-1.097,-4.046,0.702,0.015,565665
0.319,0.047,-1.094,-4.595,0.519,-0.153,569676
0.321,0.042,-1.098,-4.595,0.168,-0.153,573697
0.318,0.044,-1.095,-4.244,0.336,-0.153,577709
0.311,0.051,-1.102,-3.756,-0.092,-0.321,581720
0.318,0.049,-1.104,-3.618,0.107,-0.076,585731
0.326,0.050,-1.103,-2.992,0.061,-0.397,589742
0.323,0.051,-1.101,-3.267,-0.214,-0.824,593752
0.311,0.043,-1.089,-3.115,0.076,-0.397,597763
0.312,0.042,-1.088,-3.130,0.351,-0.534,601774
0.303,0.050,-1.093,-3.389,0.931,-0.443,605785
0.305,0.046,-1.094,-3.542,0.977,-0.382,609796
0.308,0.046,-1.095,-4.015,1.359,-0.458,613806
0.305,0.044,-1.084,-4.000,1.328,-0.626,617817
0.303,0.044,-1.086,-4.183,1.435,-0.656,621828
0.297,0.040,-1.088,-4.519,1.405,-0.672,625840
0.308,0.048,-1.091,-4.992,1.420,-0.626,629851
0.313,0.047,-1.094,-5.359,1.069,-0.565,633871
0.316,0.044,-1.095,-5.664,0.992,-0.565,637883
0.320,0.046,-1.086,-5.588,0.947,-0.702,641895
0.315,0.037,-1.094,-5.511,0.809,-0.336,645905
0.304,0.048,-1.091,-5.359,0.763,-0.168,649916
0.304,0.042,-1.088,-5.481,0.916,-0.061,653927
0.315,0.043,-1.089,-5.405,0.916,-0.061,657939
0.311,0.048,-1.088,-5.389,0.992,-0.031,661950
0.308,0.056,-1.081,-5.145,0.992,-0.031,665961
0.313,0.052,-1.087,-4.748,0.931,0.031,669972
0.314,0.051,-1.084,-4.504,0.840,-0.137,673983
0.314,0.049,-1.082,-3.939,0.947,-0.061,677994
0.315,0.047,-1.097,-3.756,1.084,-0.092,682005
0.307,0.055,-1.087,-3.328,0.992,0.046,686016
0.306,0.046,-1.086,-3.130,0.901,0.137,690027
0.312,0.043,-1.090,-3.130,1.221,-0.015,694038
0.314,0.041,-1.089,-3.374,1.313,0.382,698049
0.315,0.039,-1.096,-3.679,1.771,0.412,702060
0.312,0.035,-1.090,-4.290,1.756,0.427,706071
0.314,0.035,-1.106,-4.763,1.817,0.351,710082
0.320,0.032,-1.101,-5.328,1.664,0.076,714093
0.319,0.040,-1.090,-5.802,1.634,-0.015,718104
0.318,0.045,-1.086,-5.878,1.786,-0.046,722115
0.317,0.046,-1.092,-5.832,1.374,-0.595,726126
0.318,0.049,-1.077,-5.573,1.176,-0.458,730137
0.324,0.047,-1.073,-5.359,1.267,-0.550,734149
0.318,0.048,-1.081,-4.824,1.099,-0.550,738157
0.322,0.050,-1.075,-4.565,0.916,-0.412,742168
0.314,0.052,-1.080,-4.366,1.237,-0.107,746179
0.310,0.046,-1.084,-4.153,1.450,0.076,750190
0.315,0.049,-1.086,-3.893,1.710,0.168,754201
0.316,0.045,-1.092,-3.924,2.092,0.443,758215
0.315,0.045,-1.083,-4.015,1.893,0.305,762226
0.319,0.044,-1.093,-4.183,1.939,0.382,766237
0.316,0.045,-1.099,-4.382,1.756,0.321,770248
0.319,0.046,-1.099,-4.656,1.771,0.061,774259
0.320,0.045,-1.099,-5.023,1.863,0.031,778271
0.320,0.048,-1.091,-5.069,1.939,-0.122,782282
0.312,0.046,-1.093,-4.901,2.107,-0.046,786293
0.314,0.050,-1.094,-4.779,2.015,-0.092,790304
0.316,0.054,-1.093,-4.626,1.863,-0.351,794315
0.325,0.050,-1.089,-4.473,1.435,-0.290,798327
0.330,0.048,-1.086,-4.153,1.328,-0.489,802338
0.321,0.046,-1.090,-4.275,1.191,-0.305,806349
0.322,0.051,-1.088,-4.137,0.840,-0.397,810360
0.320,0.043,-1.083,-4.489,0.305,-0.779,814371
0.311,0.046,-1.086,-4.840,0.351,-0.809,818381
0.310,0.046,-1.079,-5.069,0.229,-1.313,822393
0.309,0.046,-1.088,-5.359,0.382,-1.618,826403
0.306,0.040,-1.099,-5.557,0.718,-1.740,830414
0.308,0.049,-1.101,-5.786,0.901,-1.756,834425
0.315,0.049,-1.094,-5.817,1.267,-1.649,838436
0.309,0.057,-1.098,-5.496,1.420,-1.664,842447
0.312,0.059,-1.089,-5.420,1.237,-1.679,846458
0.301,0.062,-1.083,-4.855,2.153,-1.313,850469
0.298,0.059,-1.094,-4.290,2.061,-1.023,854480
0.298,0.056,-1.087,-3.695,2.656,-0.565,858491
0.300,0.055,-1.088,-3.328,2.916,-0.214,862502
0.309,0.063,-1.094,-3.267,3.099,-0.183,866514
0.305,0.049,-1.085,-3.618,3.008,0.137,870525
0.312,0.044,-1.085,-3.847,2.534,0.168,874536
0.315,0.049,-1.084,-4.061,2.504,-0.015,878544
0.319,0.052,-1.088,-4.198,2.290,-0.504,882556
0.312,0.055,-1.098,-4.153,1.695,-0.489,886566
0.313,0.053,-1.092,-4.366,1.557,-0.763,890577
0.314,0.049,-1.089,-4.489,1.420,-1.008,894588
0.312,0.048,-1.089,-4.962,0.977,-1.069,898600
0.316,0.053,-1.084,-5.328,1.069,-0.977,902611
0.310,0.053,-1.084,-5.374,1.176,-1.023,906623
0.305,0.055,-1.080,-5.206,1.115,-1.221,910634
0.307,0.059,-1.078,-4.870,1.298,-1.130,914645
0.297,0.062,-1.066,-4.412,1.542,-1.130,918657
0.283,0.054,-1.071,-4.046,1.664,-1.252,922678
0.287,0.054,-1.068,-4.153,1.817,-1.145,926689
0.302,0.049,-1.075,-4.519,1.786,-1.130,930700
0.301,0.043,-1.074,-4.855,1.435,-1.084,934711
0.309,0.050,-1.084,-5.389,1.237,-0.855,938723
0.301,0.043,-1.071,-5.603,0.733,-0.870,942738
0.302,0.051,-1.077,-5.603,0.397,-0.580,946749
0.295,0.052,-1.072,-5.527,0.443,-0.550,950760
0.291,0.048,-1.064,-5.282,0.534,-0.412,954771
0.286,0.057,-1.071,-4.962,0.718,-0.321,958782
0.288,0.063,-1.061,-4.504,1.069,0.015,962794
0.284,0.067,-1.057,-4.031,1.664,0.305,966805
0.291,0.065,-1.065,-3.053,1.725,0.427,970817
0.299,0.053,-1.052,-2.519,2.137,0.779,974828
0.293,0.054,-1.061,-2.000,1.985,1.053,978839
0.296,0.054,-1.052,-1.664,1.847,1.221,982849
0.295,0.042,-1.043,-1.649,1.740,1.145,986860
0.290,0.050,-1.041,-2.046,1.450,1.252,990871
0.297,0.042,-1.039,-2.321,1.542,1.466,994882
0.291,0.041,-1.048,-2.718,1.405,1.206,998893
0.292,0.050,-1.032,-2.748,1.252,1.008,1002903
0.295,0.047,-1.027,-2.412,1.115,1.191,1006914
0.288,0.052,-1.023,-1.863,1.130,1.130,1010925
0.287,0.052,-1.025,-1.618,1.221,1.344,1014936
0.290,0.052,-1.011,-1.130,1.191,1.313,1018947
0.285,0.052,-1.009,-0.656,1.435,1.527,1022967
0.283,0.056,-1.007,-0.198,1.374,1.634,1026978
0.283,0.055,-1.011,0.321,1.282,1.481,1030990
0.285,0.054,-0.993,0.611,1.344,1.710,1035000
0.286,0.051,-1.003,0.885,1.405,1.725,1039011
0.286,0.044,-0.999,0.962,0.733,1.695,1043032
0.280,0.047,-0.985,0.748,0.672,1.634,1047043
0.275,0.042,-0.972,0.122,0.153,1.511,1051054
0.277,0.044,-0.966,-0.366,0.076,1.252,1055065
0.261,0.047,-0.956,-0.779,-0.229,1.115,1059076
0.261,0.045,-0.949,-1.206,-0.305,0.870,1063088
0.251,0.054,-0.922,-1.420,-0.229,0.534,1067099
0.248,0.056,-0.915,-1.618,-0.153,0.275,1071110
0.240,0.057,-0.898,-1.359,0.061,0.137,1075121
0.233,0.067,-0.891,-1.053,0.046,0.061,1079132
0.236,0.074,-0.875,-0.305,0.550,0.153,1083144
0.232,0.075,-0.862,0.611,0.366,0.366,1087155
0.230,0.078,-0.862,1.466,0.351,0.809,1091166
0.228,0.081,-0.845,2.534,-0.366,1.573,1095177
0.230,0.088,-0.835,3.954,-1.069,2.046,1099188
0.238,0.084,-0.845,5.847,-1.771,2.748,1103209
0.241,0.087,-0.851,7.649,-2.702,3.756,1107220
0.242,0.085,-0.850,10.000,-3.634,4.840,1111232
0.245,0.085,-0.843,12.550,-4.229,5.908,1115243
0.245,0.075,-0.837,15.481,-4.626,7.160,1119254
0.236,0.068,-0.842,17.542,-5.847,8.046,1123275
0.238,0.067,-0.843,19.634,-6.962,8.931,1127286
0.238,0.065,-0.838,21.954,-7.282,9.969,1131297
0.235,0.056,-0.850,23.206,-6.901,10.885,1135308
0.232,0.055,-0.846,24.290,-6.473,11.237,1139319
0.230,0.042,-0.847,24.870,-6.229,11.771,1143337
0.236,0.034,-0.838,25.466,-5.756,11.618,1147349
0.228,0.031,-0.822,25.573,-5.160,11.542,1151360
0.234,0.025,-0.822,25.511,-4.840,11.588,1155372
0.227,0.020,-0.818,25.344,-4.351,11.359,1159383
0.234,0.033,-0.820,25.206,-3.802,11.313,1163394
0.234,0.033,-0.810,25.710,-3.466,11.221,1167405
0.240,0.042,-0.809,26.687,-3.359,11.084,1171416
0.240,0.044,-0.799,28.412,-3.176,11.130,1175427
0.253,0.051,-0.802,30.809,-3.557,11.359,1179438
0.252,0.050,-0.790,33.573,-3.863,12.122,1183449
0.257,0.058,-0.796,36.611,-4.305,12.916,1187460
0.261,0.060,-0.801,40.168,-5.649,14.397,1191471
0.261,0.057,-0.820,43.954,-6.107,16.061,1195482
0.263,0.056,-0.814,47.832,-6.779,17.878,1199493
0.268,0.038,-0.822,51.496,-7.252,19.420,1203503
0.252,0.026,-0.830,54.672,-7.313,21.069,1207514
0.254,0.012,-0.830,57.313,-6.947,22.137,1211525
0.245,0.000,-0.833,59.359,-6.489,22.702,1215536
0.245,-0.011,-0.844,60.702,-5.221,23.847,1219548
0.234,-0.018,-0.835,62.046,-3.740,24.321,1223563
0.226,-0.024,-0.840,63.008,-1.954,24.809,1227574
0.223,-0.032,-0.836,63.847,-0.366,25.023,1231585
0.224,-0.046,-0.843,64.244,0.733,25.374,1235596
0.232,-0.049,-0.846,64.550,1.206,25.450,1239607
0.246,-0.065,-0.846,64.168,1.267,25.176,1243627
0.252,-0.066,-0.860,64.137,1.237,25.298,1247639
0.243,-0.079,-0.859,64.351,0.412,25.328,1251650
0.233,-0.083,-0.853,64.611,-0.550,25.435,1255660
0.242,-0.087,-0.850,65.618,-1.832,25.710,1259671
0.237,-0.089,-0.841,67.069,-3.389,25.863,1263692
0.241,-0.094,-0.852,68.656,-4.947,26.168,1267703
0.231,-0.100,-0.849,69.328,-6.366,26.656,1271714
0.228,-0.118,-0.857,70.061,-7.588,26.947,1275725
0.223,-0.128,-0.858,70.321,-8.992,27.023,1279736
0.217,-0.144,-0.869,70.275,-9.511,26.733,1283748
0.211,-0.159,-0.871,70.244,-9.710,26.626,1287759
0.208,-0.168,-0.876,70.168,-9.893,26.458,1291769
0.197,-0.175,-0.877,70.198,-9.710,26.595,1295780
0.199,-0.183,-0.883,70.031,-9.466,26.748,1299791
0.188,-0.201,-0.894,70.122,-8.595,27.115,1303802
0.194,-0.193,-0.886,71.023,-7.634,27.908,1307812
0.201,-0.199,-0.908,72.611,-6.473,28.336,1311823
0.206,-0.198,-0.910,74.122,-5.282,28.748,1315834
0.207,-0.205,-0.912,75.863,-4.336,29.191,1319845
0.194,-0.227,-0.907,77.313,-4.107,29.771,1323865
0.202,-0.251,-0.904,77.740,-3.939,30.290,1327877
0.199,-0.274,-0.915,77.985,-3.969,30.626,1331888
0.196,-0.292,-0.936,77.756,-3.908,31.038,1335899
0.205,-0.310,-0.941,76.901,-4.611,30.977,1339913
0.205,-0.332,-0.960,75.695,-5.832,31.191,1343924
0.206,-0.338,-0.952,74.824,-6.489,31.359,1347935
0.208,-0.348,-0.953,74.397,-7.740,31.786,1351947
0.207,-0.346,-0.964,74.916,-8.550,32.397,1355957
0.216,-0.334,-0.984,76.107,-9.298,33.435,1359968
0.226,-0.330,-0.995,78.046,-9.588,34.916,1363979
0.228,-0.332,-0.996,81.282,-9.237,36.779,1367991
0.243,-0.342,-1.000,84.870,-8.748,38.672,1372002
0.261,-0.349,-1.013,88.718,-7.740,40.885,1376014
0.271,-0.359,-1.037,91.481,-7.099,42.962,1380025
0.278,-0.388,-1.037,93.771,-5.771,44.656,1384036
0.267,-0.435,-1.044,96.137,-4.290,45.679,1388048
0.282,-0.464,-1.061,96.046,-3.435,46.168,1392059
0.273,-0.487,-1.080,95.496,-2.473,46.260,1396071
0.273,-0.511,-1.089,92.855,-1.237,45.939,1400082
0.275,-0.523,-1.098,91.618,-0.473,44.733,1404093
0.275,-0.546,-1.096,89.420,0.229,43.740,1408104
0.279,-0.540,-1.107,87.664,-0.092,41.847,1412115
0.265,-0.543,-1.097,85.435,-0.046,40.229,1416126
0.270,-0.550,-1.082,84.122,-0.870,38.504,1420137
0.266,-0.529,-1.074,83.527,-1.481,37.206,1424149
0.283,-0.534,-1.080,83.313,-3.176,35.969,1428157
0.299,-0.527,-1.082,84.061,-4.901,35.130,1432168
0.302,-0.520,-1.095,85.405,-7.191,34.656,1436179
0.309,-0.526,-1.089,87.405,-9.847,34.641,1440190
0.306,-0.528,-1.092,90.397,-13.023,34.763,1444201
0.315,-0.538,-1.096,94.137,-16.748,34.977,1448215
0.317,-0.547,-1.103,97.206,-20.809,35.374,1452226
0.318,-0.562,-1.104,99.191,-24.824,35.847,1456237
0.307,-0.591,-1.101,100.412,-27.802,35.802,1460248
0.290,-0.616,-1.111,100.550,-30.534,35.664,1464259
0.285,-0.635,-1.117,100.183,-32.534,35.099,1468271
0.254,-0.668,-1.122,98.519,-34.489,34.901,1472282
0.245,-0.678,-1.139,96.550,-35.130,34.473,1476293
0.230,-0.688,-1.145,94.580,-34.931,34.290,1480304
0.215,-0.687,-1.155,92.244,-34.061,34.076,1484315
0.191,-0.676,-1.147,91.328,-32.626,33.893,1488327
0.177,-0.673,-1.130,91.008,-30.870,34.046,1492338
0.155,-0.660,-1.111,91.038,-28.748,34.275,1496349
0.139,-0.647,-1.103,93.527,-25.740,34.458,1500360
0.140,-0.642,-1.100,95.817,-23.160,34.473,1504371
0.128,-0.635,-1.094,98.565,-19.939,35.176,1508381
0.124,-0.635,-1.109,101.817,-16.794,36.229,1512393
0.124,-0.643,-1.118,104.901,-14.504,37.557,1516403
0.144,-0.665,-1.135,107.267,-12.763,39.374,1520414
0.166,-0.688,-1.130,109.252,-12.061,41.511,1524425
0.179,-0.719,-1.121,110.137,-12.595,43.481,1528436
0.181,-0.755,-1.125,109.527,-14.015,45.603,1532447
0.161,-0.794,-1.112,107.985,-15.145,47.420,1536458
0.147,-0.817,-1.116,106.015,-15.740,49.176,1540469
0.131,-0.827,-1.119,103.603,-15.969,50.397,1544480
0.120,-0.823,-1.099,101.618,-15.786,51.634,1548491
0.117,-0.816,-1.094,100.061,-15.496,52.366,1552502
0.116,-0.800,-1.083,99.466,-15.420,52.947,1556514
0.129,-0.783,-1.078,100.153,-15.878,53.374,1560525
0.133,-0.757,-1.078,101.511,-16.534,54.122,1564536
0.148,-0.752,-1.058,104.504,-17.191,54.779,1568544
0.156,-0.739,-1.066,108.595,-18.260,55.725,1572556
0.179,-0.740,-1.068,113.099,-19.649,56.504,1576566
0.212,-0.760,-1.068,116.702,-21.191,56.794,1580577
0.244,-0.789,-1.092,119.374,-22.840,57.099,1584588
0.248,-0.808,-1.105,120.198,-24.763,57.008,1588600
0.260,-0.845,-1.132,120.305,-26.458,56.153,1592611
0.267,-0.845,-1.146,119.817,-28.443,54.290,1596623
0.260,-0.859,-1.161,118.061,-30.763,52.244,1600634
0.260,-0.880,-1.167,114.473,-32.366,49.221,1604645
0.249,-0.894,-1.175,109.466,-34.015,45.679,1608657
0.238,-0.905,-1.187,103.252,-34.977,41.527,1612678
0.218,-0.906,-1.187,97.496,-36.260,37.267,1616689
0.208,-0.878,-1.190,92.779,-37.313,33.191,1620700
0.202,-0.846,-1.194,89.359,-39.237,29.405,1624711
0.191,-0.825,-1.177,85.679,-40.885,26.015,1628723
0.189,-0.822,-1.176,82.809,-42.458,23.374,1632738
0.180,-0.814,-1.157,80.504,-43.008,21.359,1636749
0.167,-0.812,-1.165,77.969,-42.550,20.275,1640760
0.146,-0.805,-1.144,76.321,-41.466,20.015,1644771
0.145,-0.792,-1.150,74.611,-39.802,20.443,1648782
0.156,-0.784,-1.144,72.885,-38.321,20.504,1652794
0.171,-0.775,-1.149,70.931,-35.954,20.565,1656805
0.184,-0.777,-1.158,68.580,-33.603,20.718,1660817
0.174,-0.782,-1.162,65.298,-31.053,20.656,1664828
0.175,-0.801,-1.163,60.901,-28.611,19.924,1668839
0.169,-0.805,-1.167,56.153,-26.000,18.656,1672849
0.165,-0.804,-1.170,51.420,-24.046,17.053,1676860
0.160,-0.781,-1.183,47.069,-22.153,15.023,1680871
0.164,-0.774,-1.175,42.504,-20.855,12.763,1684882
0.162,-0.772,-1.157,37.573,-19.344,10.427,1688893
0.147,-0.771,-1.143,32.931,-17.588,8.183,1692903
0.148,-0.773,-1.129,28.595,-16.107,5.832,1696914
0.143,-0.764,-1.113,25.038,-14.351,3.954,1700925
0.135,-0.750,-1.087,21.863,-12.458,1.939,1704937
0.130,-0.735,-1.077,19.099,-11.435,0.290,1708948
0.116,-0.719,-1.044,17.573,-10.366,-1.145,1712967
0.109,-0.704,-1.036,16.580,-9.817,-2.534,1716978
0.110,-0.699,-1.027,16.046,-9.221,-3.817,1720989
0.093,-0.688,-1.022,15.527,-8.885,-4.489,1725000
0.086,-0.675,-1.012,16.046,-7.985,-4.519,1729011
0.075,-0.671,-1.009,17.084,-7.099,-4.489,1733032
0.084,-0.664,-0.995,18.290,-5.740,-3.893,1737043
0.080,-0.658,-0.990,19.405,-4.855,-3.176,1741055
0.079,-0.660,-1.002,19.786,-3.389,-1.771,1745066
0.077,-0.669,-1.005,19.634,-3.221,-1.313,1749077
0.064,-0.691,-0.993,19.573,-0.916,1.588,1753089
0.066,-0.713,-0.996,18.550,2.489,3.527,1757100
0.077,-0.731,-0.983,15.939,4.870,4.473,1761111
0.067,-0.741,-0.976,12.595,6.779,4.397,1765122
0.067,-0.762,-0.966,9.176,7.695,3.756,1769133
0.067,-0.777,-0.958,5.649,8.534,3.847,1773143
0.076,-0.771,-0.962,2.260,8.748,3.374,1777154
0.080,-0.765,-0.977,-1.008,8.122,3.069,1781165
0.088,-0.756,-0.965,-3.847,6.382,2.061,1785176
0.109,-0.749,-0.963,-6.336,4.244,0.977,1789187
0.110,-0.740,-0.936,-7.954,2.275,0.244,1793207
0.104,-0.736,-0.926,-8.824,0.351,0.229,1797219
0.104,-0.729,-0.907,-8.794,-1.542,0.443,1801229
0.102,-0.727,-0.894,-8.534,-2.061,0.427,1805240
0.101,-0.732,-0.880,-8.427,-2.229,0.168,1809251
0.096,-0.730,-0.865,-8.305,-1.908,0.000,1813271
0.086,-0.734,-0.858,-8.397,-0.733,-0.275,1817282
0.078,-0.746,-0.855,-8.840,0.733,-0.626,1821293
0.086,-0.742,-0.839,-8.763,1.771,-0.809,1825305
0.079,-0.754,-0.833,-8.748,2.702,-1.145,1829316
0.090,-0.750,-0.834,-8.626,3.130,-1.481,1833334
0.093,-0.746,-0.829,-8.626,3.038,-1.725,1837345
0.095,-0.755,-0.820,-8.397,2.580,-2.183,1841356
0.094,-0.758,-0.802,-8.443,2.550,-2.427,1845368
0.090,-0.774,-0.801,-8.763,2.305,-3.069,1849379
0.079,-0.780,-0.789,-9.069,1.695,-3.344,1853390
0.070,-0.788,-0.785,-9.786,1.496,-4.015,1857401
0.076,-0.791,-0.789,-10.473,1.008,-4.443,1861412
0.078,-0.797,-0.774,-11.588,0.779,-4.977,1865423
0.074,-0.797,-0.776,-12.031,0.794,-5.328,1869434
0.071,-0.789,-0.774,-12.275,0.321,-5.679,1873445
0.059,-0.778,-0.772,-12.427,0.824,-5.817,1877456
0.038,-0.782,-0.762,-12.855,1.298,-5.679,1881467
0.040,-0.781,-0.763,-13.008,2.000,-5.267,1885478
0.036,-0.772,-0.754,-12.809,2.397,-4.901,1889489
0.038,-0.763,-0.751,-11.832,2.824,-4.351,1893500
0.037,-0.758,-0.750,-10.855,3.038,-3.618,1897510
0.058,-0.754,-0.747,-9.786,2.977,-2.748,1901521
0.056,-0.749,-0.744,-8.595,2.794,-2.305,1905532
0.061,-0.751,-0.755,-7.511,3.069,-1.573,1909543
0.066,-0.756,-0.756,-6.489,3.099,-0.947,1913552
0.064,-0.760,-0.766,-5.786,3.435,-0.534,1917563
0.070,-0.768,-0.765,-5.176,4.153,-0.702,1921574
0.074,-0.768,-0.760,-4.931,4.901,-0.977,1925586
0.072,-0.777,-0.762,-5.069,5.725,-1.298,1929597
0.060,-0.782,-0.764,-5.740,6.519,-1.756,1933616
0.051,-0.785,-0.759,-6.061,6.870,-2.412,1937627
0.059,-0.774,-0.756,-6.290,6.992,-3.405,1941638
0.043,-0.772,-0.746,-6.260,5.985,-3.985,1945649
0.048,-0.774,-0.745,-5.771,5.160,-4.580,1949660
0.049,-0.771,-0.752,-5.252,3.954,-4.824,1953681
0.058,-0.770,-0.755,-5.038,2.214,-4.595,1957692
0.049,-0.770,-0.760,-4.519,1.573,-4.137,1961703
0.045,-0.769,-0.769,-4.458,0.321,-3.710,1965714
0.040,-0.781,-0.776,-4.885,0.076,-2.901,1969725
0.032,-0.786,-0.768,-5.069,0.718,-2.290,1973738
0.020,-0.773,-0.782,-5.115,2.305,-1.756,1977749
0.017,-0.763,-0.784,-4.840,3.924,-1.099,1981760
0.028,-0.757,-0.790,-4.534,6.076,-0.458,1985771
0.030,-0.751,-0.790,-4.092,7.450,0.061,1989782
0.038,-0.749,-0.792,-3.969,8.580,0.397,1993792
0.047,-0.748,-0.789,-3.511,9.496,0.794,1997803
0.049,-0.752,-0.786,-2.901,9.664,1.557,2001814
