acc_x,acc_y,acc_z,gyro_x,gyro_y,gyro_z,time
0.313,-0.183,-1.078,1.145,-2.473,-2.275,0
0.313,-0.184,-1.081,1.267,-1.802,-2.229,4053
0.308,-0.179,-1.086,1.344,-1.191,-1.924,8069
0.322,-0.186,-1.083,1.405,-0.718,-1.939,12080
0.313,-0.195,-1.103,1.221,0.153,-1.573,16091
0.317,-0.192,-1.097,0.779,0.489,-1.649,20102
0.322,-0.201,-1.093,0.504,0.916,-1.557,24113
0.325,-0.199,-1.088,0.031,0.992,-1.466,28124
0.330,-0.203,-1.101,-0.321,0.992,-1.511,32135
0.333,-0.199,-1.102,-0.489,1.023,-1.573,36147
0.340,-0.201,-1.102,-0.901,0.702,-1.664,40157
0.341,-0.200,-1.101,-1.435,0.397,-1.847,44168
0.336,-0.196,-1.096,-1.679,-0.015,-1.985,48179
0.337,-0.199,-1.085,-2.000,-0.275,-2.046,52190
0.336,-0.194,-1.093,-2.214,-0.641,-1.969,56201
0.336,-0.192,-1.101,-2.275,-0.916,-2.046,60212
0.338,-0.197,-1.095,-2.473,-0.931,-1.924,64223
0.339,-0.191,-1.088,-2.534,-1.053,-1.740,68234
0.335,-0.191,-1.084,-2.427,-0.931,-1.878,72245
0.340,-0.198,-1.101,-2.611,-1.023,-1.863,76256
0.331,-0.198,-1.096,-2.763,-0.962,-1.603,80268
0.334,-0.196,-1.093,-2.870,-0.748,-1.603,84279
0.334,-0.190,-1.086,-2.626,-0.656,-1.389,88290
0.333,-0.193,-1.094,-2.718,-0.427,-1.176,92302
0.337,-0.198,-1.095,-2.733,-0.290,-1.145,96312
0.338,-0.193,-1.085,-2.641,-0.046,-1.206,100323
0.338,-0.195,-1.093,-2.748,0.092,-1.344,104335
0.335,-0.191,-1.095,-2.809,0.351,-1.389,108346
0.331,-0.197,-1.082,-2.534,0.656,-1.420,112357
0.334,-0.195,-1.083,-2.565,1.099,-1.511,116368
0.336,-0.194,-1.089,-2.458,1.374,-1.634,120379
0.338,-0.192,-1.088,-2.382,1.573,-1.634,124390
0.332,-0.193,-1.088,-2.473,1.863,-1.542,128401
0.335,-0.190,-1.084,-2.351,2.046,-1.695,132412
0.334,-0.194,-1.084,-2.305,2.229,-1.863,136423
0.333,-0.190,-1.082,-2.107,2.336,-1.802,140434
0.335,-0.189,-1.093,-2.168,2.504,-1.863,144445
0.334,-0.194,-1.093,-2.260,2.611,-2.031,148456
0.335,-0.195,-1.090,-2.427,2.794,-1.908,152467
0.340,-0.196,-1.085,-2.672,2.748,-1.969,156479
0.328,-0.208,-1.086,-2.718,2.687,-1.878,160490
0.345,-0.203,-1.094,-3.237,2.504,-2.046,164501
0.349,-0.203,-1.094,-3.527,2.107,-2.229,168512
0.348,-0.199,-1.094,-3.847,1.710,-2.473,172523
0.357,-0.196,-1.090,-4.107,1.084,-2.748,176534
0.346,-0.193,-1.081,-4.260,0.427,-2.733,180545
0.342,-0.193,-1.094,-4.489,-0.031,-2.977,184557
0.341,-0.189,-1.086,-4.412,-0.092,-3.282,188567
0.338,-0.190,-1.087,-4.244,-0.473,-3.511,192578
0.336,-0.186,-1.099,-4.153,-0.611,-3.496,196589
0.331,-0.188,-1.086,-3.847,-0.504,-3.603,200600
0.340,-0.187,-1.086,-3.664,-0.611,-3.603,204611
0.331,-0.192,-1.088,-3.618,-0.504,-3.237,208622
0.329,-0.192,-1.090,-3.405,-0.412,-3.099,212642
0.329,-0.191,-1.091,-3.405,-0.473,-3.084,216654
0.321,-0.188,-1.083,-3.420,-0.366,-2.855,220664
0.326,-0.184,-1.077,-3.160,-0.290,-2.855,224675
0.326,-0.185,-1.087,-3.069,-0.046,-2.855,228686
0.330,-0.184,-1.089,-2.870,0.000,-2.595,232704
0.330,-0.189,-1.090,-2.885,0.107,-2.519,236715
0.327,-0.190,-1.096,-2.824,0.061,-2.427,240726
0.329,-0.198,-1.087,-2.916,0.260,-2.427,244737
0.324,-0.197,-1.096,-3.084,0.183,-2.489,248748
0.330,-0.194,-1.089,-3.252,0.382,-2.550,252759
0.327,-0.193,-1.097,-3.298,0.321,-2.794,256770
0.332,-0.196,-1.096,-3.374,0.412,-2.824,260781
0.335,-0.192,-1.095,-3.573,0.366,-2.733,264792
0.335,-0.194,-1.103,-3.542,0.366,-3.023,268799
0.331,-0.189,-1.099,-3.710,0.122,-2.870,272810
0.329,-0.190,-1.097,-3.756,-0.015,-2.794,276821
0.324,-0.193,-1.099,-3.573,-0.061,-2.916,280832
0.328,-0.188,-1.100,-3.924,0.031,-2.855,284843
0.322,-0.188,-1.093,-3.802,0.214,-2.794,288854
0.331,-0.193,-1.098,-3.634,0.092,-2.809,292865
0.323,-0.185,-1.095,-3.710,0.198,-2.519,296876
0.330,-0.187,-1.088,-3.634,0.031,-2.595,300888
0.335,-0.184,-1.089,-3.695,-0.153,-2.244,304899
0.332,-0.185,-1.097,-3.847,-0.504,-2.397,308910
0.337,-0.188,-1.092,-3.710,-1.008,-2.321,312925
0.329,-0.185,-1.097,-3.786,-1.481,-2.244,316936
0.335,-0.185,-1.090,-3.511,-1.786,-2.153,320947
0.331,-0.192,-1.089,-3.115,-1.878,-1.985,324958
0.323,-0.185,-1.091,-3.023,-1.695,-2.092,328969
0.323,-0.188,-1.094,-2.855,-1.695,-2.153,332988
0.323,-0.185,-1.100,-2.916,-1.542,-2.076,336999
0.321,-0.188,-1.102,-2.931,-1.252,-2.031,341010
0.323,-0.196,-1.104,-2.931,-0.977,-2.046,345022
0.315,-0.195,-1.098,-3.206,-0.305,-2.015,349033
0.318,-0.195,-1.092,-3.435,0.000,-1.878,353054
0.316,-0.192,-1.094,-3.710,0.336,-2.061,357065
0.326,-0.192,-1.098,-3.847,0.702,-2.061,361076
0.327,-0.192,-1.093,-3.954,0.947,-1.939,365087
0.326,-0.192,-1.098,-4.061,0.962,-1.969,369098
0.329,-0.198,-1.107,-4.183,0.977,-2.031,373110
0.332,-0.199,-1.104,-4.305,0.824,-2.137,377121
0.334,-0.195,-1.102,-4.489,0.779,-2.305,381133
0.341,-0.200,-1.103,-4.672,0.290,-2.443,385144
0.336,-0.195,-1.095,-4.916,-0.046,-2.504,389155
0.340,-0.196,-1.094,-5.023,-0.565,-2.427,393165
0.339,-0.191,-1.091,-5.267,-0.977,-2.824,397176
0.342,-0.194,-1.091,-5.282,-1.511,-2.489,401187
0.333,-0.193,-1.095,-5.328,-1.908,-2.763,405198
0.333,-0.193,-1.096,-5.496,-2.290,-2.824,409209
0.333,-0.190,-1.092,-5.496,-2.458,-2.901,413230
0.328,-0.188,-1.093,-5.405,-2.427,-2.840,417241
0.330,-0.183,-1.088,-5.344,-2.519,-2.809,421253
0.327,-0.179,-1.103,-5.176,-2.168,-2.687,425263
0.324,-0.183,-1.096,-4.870,-1.969,-2.840,429274
0.322,-0.188,-1.084,-4.641,-1.695,-2.595,433295
0.316,-0.185,-1.091,-4.656,-1.237,-2.519,437306
0.317,-0.183,-1.086,-4.458,-0.718,-2.382,441317
0.307,-0.185,-1.090,-4.183,-0.061,-2.443,445328
0.309,-0.182,-1.092,-3.985,0.534,-2.244,449339
0.310,-0.184,-1.080,-3.954,1.313,-2.137,453351
0.310,-0.186,-1.095,-4.122,1.939,-1.695,457362
0.311,-0.194,-1.085,-4.336,2.641,-2.061,461374
0.318,-0.192,-1.088,-4.626,2.947,-1.618,465385
0.316,-0.188,-1.093,-4.748,3.069,-1.893,469396
0.326,-0.193,-1.091,-5.145,2.855,-1.756,473407
0.331,-0.188,-1.088,-5.206,2.397,-1.817,477418
0.338,-0.186,-1.083,-5.649,2.183,-1.863,481429
0.338,-0.188,-1.088,-5.740,1.496,-2.137,485441
0.336,-0.186,-1.084,-5.740,0.794,-1.985,489452
0.339,-0.183,-1.090,-5.802,0.000,-2.076,493463
0.344,-0.183,-1.098,-5.634,-0.550,-2.031,497474
0.340,-0.183,-1.096,-5.679,-1.008,-2.015,501486
0.336,-0.179,-1.094,-5.527,-1.450,-1.832,505497
0.338,-0.181,-1.094,-5.420,-1.847,-1.878,509508
0.330,-0.185,-1.103,-5.130,-1.588,-1.603,513519
0.327,-0.177,-1.092,-4.977,-1.466,-1.405,517529
0.325,-0.182,-1.086,-4.977,-1.420,-1.359,521540
0.331,-0.186,-1.092,-4.733,-0.901,-1.374,525551
0.322,-0.181,-1.083,-4.504,-0.641,-1.466,529562
0.316,-0.181,-1.088,-4.366,-0.046,-1.466,533572
0.326,-0.179,-1.088,-4.244,0.489,-1.466,537583
0.324,-0.174,-1.084,-4.137,0.840,-1.389,541594
0.320,-0.182,-1.083,-4.000,1.099,-1.542,545605
0.325,-0.179,-1.087,-3.847,1.405,-1.542,549617
0.332,-0.178,-1.082,-3.985,1.634,-1.634,553636
0.328,-0.185,-1.086,-3.939,1.832,-1.817,557648
0.328,-0.190,-1.098,-4.260,1.771,-1.893,561659
0.325,-0.187,-1.086,-4.489,2.015,-1.985,565670
0.326,-0.185,-1.098,-4.733,2.046,-2.153,569681
0.332,-0.186,-1.078,-5.115,1.969,-2.107,573702
0.333,-0.184,-1.084,-5.527,1.603,-2.397,577713
0.329,-0.184,-1.087,-6.031,1.374,-2.382,581724
0.331,-0.178,-1.094,-6.122,1.053,-2.397,585735
0.341,-0.180,-1.083,-6.275,0.489,-2.550,589746
0.337,-0.179,-1.076,-6.412,0.015,-2.412,593756
0.336,-0.182,-1.086,-6.321,-0.611,-2.458,597767
0.334,-0.176,-1.078,-6.260,-0.840,-2.275,601778
0.328,-0.168,-1.090,-6.122,-1.344,-2.122,605790
0.324,-0.173,-1.091,-5.771,-1.374,-1.954,609801
0.325,-0.168,-1.084,-5.511,-1.435,-1.832,613811
0.322,-0.165,-1.086,-5.115,-1.603,-1.542,617821
0.330,-0.166,-1.083,-4.611,-1.374,-1.298,621832
0.316,-0.172,-1.079,-4.336,-1.527,-0.870,625843
0.328,-0.172,-1.085,-3.878,-1.267,-0.840,629854
0.321,-0.173,-1.089,-3.389,-0.916,-0.885,633874
0.322,-0.172,-1.083,-3.191,-0.748,-0.992,637887
0.321,-0.177,-1.083,-3.023,-0.626,-0.824,641898
0.326,-0.182,-1.089,-2.809,-0.260,-0.855,645909
0.332,-0.183,-1.106,-2.656,-0.031,-0.855,649920
0.331,-0.187,-1.094,-2.855,-0.076,-1.008,653931
0.328,-0.189,-1.087,-2.947,0.382,-1.252,657942
0.327,-0.190,-1.094,-3.084,0.489,-1.298,661953
0.321,-0.193,-1.090,-3.145,0.794,-1.435,665964
0.323,-0.191,-1.096,-3.359,0.977,-1.496,669975
0.326,-0.189,-1.094,-3.985,0.931,-1.832,673986
0.333,-0.191,-1.094,-4.198,1.221,-2.183,677998
0.330,-0.193,-1.092,-4.473,1.176,-2.229,682010
0.337,-0.192,-1.095,-4.931,1.023,-2.366,686020
0.332,-0.194,-1.098,-5.282,1.008,-2.641,690031
0.338,-0.184,-1.094,-5.511,0.611,-2.763,694043
0.339,-0.182,-1.089,-5.511,0.260,-2.779,698054
0.338,-0.185,-1.100,-5.252,-0.198,-2.763,702065
0.337,-0.176,-1.094,-5.344,-0.412,-2.885,706076
0.334,-0.173,-1.090,-5.084,-0.794,-3.038,710087
0.333,-0.177,-1.094,-4.870,-0.870,-2.870,714098
0.326,-0.170,-1.088,-4.229,-1.069,-2.763,718106
0.325,-0.174,-1.092,-4.061,-1.115,-2.626,722117
0.324,-0.173,-1.092,-3.695,-1.008,-2.656,726128
0.317,-0.174,-1.092,-3.313,-1.038,-2.244,730139
0.325,-0.172,-1.089,-2.916,-0.779,-2.137,734150
0.312,-0.176,-1.091,-2.702,-0.824,-1.924,738157
0.323,-0.167,-1.095,-2.626,-0.763,-2.061,742168
0.325,-0.171,-1.085,-2.504,-0.504,-1.588,746179
0.314,-0.174,-1.091,-2.366,-0.458,-1.618,750190
0.320,-0.176,-1.082,-1.939,-0.366,-1.634,754201
0.319,-0.177,-1.086,-2.015,-0.183,-1.573,758213
0.326,-0.175,-1.083,-2.000,-0.153,-1.649,762224
0.325,-0.178,-1.083,-1.893,0.015,-1.466,766236
0.323,-0.177,-1.084,-1.924,0.229,-1.634,770247
0.317,-0.172,-1.083,-2.046,0.519,-1.878,774258
0.323,-0.179,-1.089,-1.878,0.580,-1.878,778270
0.321,-0.174,-1.086,-1.817,0.550,-2.046,782281
0.327,-0.171,-1.082,-1.695,0.641,-2.183,786292
0.327,-0.170,-1.100,-1.450,0.672,-2.290,790303
0.323,-0.169,-1.090,-1.450,0.672,-2.290,794314
0.334,-0.167,-1.090,-1.206,0.321,-2.321,798326
0.317,-0.173,-1.097,-1.221,0.351,-2.397,802336
0.324,-0.177,-1.096,-1.099,0.427,-2.427,806347
0.321,-0.176,-1.090,-0.992,0.260,-2.412,810358
0.319,-0.176,-1.095,-0.901,0.168,-2.366,814369
0.323,-0.176,-1.084,-0.733,0.076,-2.412,818380
0.325,-0.175,-1.091,-0.733,0.137,-2.534,822391
0.336,-0.178,-1.089,-0.809,-0.153,-2.504,826402
0.327,-0.171,-1.092,-0.702,-0.412,-2.504,830413
0.327,-0.178,-1.093,-1.008,-0.656,-2.641,834424
0.323,-0.175,-1.078,-1.084,-0.763,-2.397,838434
0.322,-0.182,-1.079,-1.053,-0.947,-2.595,842445
0.322,-0.180,-1.083,-1.298,-0.809,-2.565,846456
0.318,-0.181,-1.076,-1.756,-0.672,-2.626,850467
0.317,-0.174,-1.078,-1.603,-0.626,-2.580,854478
0.307,-0.170,-1.063,-1.725,-0.229,-2.855,858489
0.312,-0.168,-1.071,-2.137,0.427,-2.824,862500
0.308,-0.168,-1.075,-2.260,0.840,-2.992,866511
0.310,-0.168,-1.061,-2.336,0.885,-2.931,870522
0.306,-0.168,-1.054,-2.504,1.038,-3.023,874533
0.305,-0.162,-1.049,-2.519,1.176,-3.099,878545
0.319,-0.160,-1.040,-2.519,1.160,-3.084,882555
0.314,-0.159,-1.042,-2.580,0.855,-2.992,886566
0.319,-0.154,-1.028,-2.656,0.565,-2.947,890577
0.298,-0.156,-1.021,-2.321,0.412,-2.656,894588
0.302,-0.152,-1.030,-2.275,0.336,-2.412,898599
0.302,-0.152,-1.016,-2.000,0.122,-2.260,902610
0.300,-0.152,-1.014,-1.939,-0.168,-1.954,906621
0.290,-0.147,-1.002,-1.817,-0.397,-1.817,910632
0.288,-0.149,-0.993,-1.634,-0.656,-1.511,914643
0.282,-0.144,-0.979,-1.527,-0.855,-1.099,918654
0.271,-0.137,-0.973,-1.237,-0.901,-0.733,922674
0.282,-0.135,-0.972,-1.237,-0.992,-0.672,926685
0.270,-0.136,-0.969,-1.252,-0.962,-0.504,930696
0.266,-0.137,-0.950,-1.191,-0.916,-0.458,934707
0.261,-0.132,-0.927,-1.267,-1.038,-0.489,938719
0.244,-0.130,-0.918,-1.237,-0.870,-0.260,942729
0.246,-0.125,-0.904,-1.466,-0.779,-0.260,946740
0.233,-0.126,-0.879,-1.725,-0.855,-0.260,950751
0.233,-0.119,-0.869,-2.214,-0.794,-0.534,954762
0.220,-0.110,-0.859,-2.931,-0.763,-0.809,958775
0.209,-0.108,-0.827,-3.649,-0.733,-1.176,962786
0.192,-0.110,-0.806,-4.412,-0.611,-1.649,966798
0.185,-0.089,-0.776,-4.366,-0.534,-1.908,970809
0.177,-0.080,-0.749,-4.153,-0.916,-2.260,974820
0.173,-0.070,-0.748,-4.092,-0.748,-2.321,978831
0.171,-0.066,-0.710,-3.481,-1.237,-2.885,982842
0.165,-0.058,-0.698,-2.473,-1.679,-3.237,986853
0.165,-0.057,-0.689,-1.557,-2.427,-2.840,990864
0.164,-0.048,-0.663,-0.290,-3.634,-2.290,994875
0.173,-0.049,-0.639,1.084,-4.794,-1.664,998887
0.175,-0.041,-0.616,2.595,-6.550,-1.160,1002899
0.167,-0.036,-0.593,4.305,-7.878,-0.397,1006910
0.159,-0.042,-0.576,6.366,-9.099,0.489,1010921
0.160,-0.041,-0.560,7.832,-10.046,1.130,1014932
0.152,-0.040,-0.536,9.603,-11.176,1.954,1018943
0.149,-0.035,-0.521,11.588,-11.908,2.550,1022963
0.143,-0.032,-0.508,13.542,-11.817,2.824,1026975
0.134,-0.026,-0.502,15.573,-11.786,3.481,1030986
0.129,-0.019,-0.490,17.374,-11.725,3.603,1034997
0.130,-0.015,-0.491,19.038,-10.977,3.618,1039008
0.136,-0.016,-0.482,20.595,-10.534,3.435,1043028
0.131,-0.020,-0.486,21.695,-10.015,3.557,1047040
0.143,-0.020,-0.481,22.718,-9.084,3.115,1051050
0.145,-0.029,-0.472,23.588,-8.550,2.947,1055061
0.150,-0.041,-0.480,24.015,-8.000,2.656,1059072
0.169,-0.037,-0.469,24.031,-7.634,2.031,1063090
0.173,-0.046,-0.470,24.015,-6.763,1.450,1067101
0.171,-0.052,-0.483,23.756,-6.076,0.901,1071112
0.166,-0.065,-0.483,23.221,-5.435,0.214,1075123
0.173,-0.078,-0.495,22.733,-4.992,-1.023,1079134
0.183,-0.086,-0.489,22.794,-4.992,-2.534,1083144
0.195,-0.091,-0.501,22.947,-5.359,-4.153,1087156
0.187,-0.112,-0.509,23.420,-6.153,-6.137,1091166
0.193,-0.114,-0.513,24.931,-7.435,-8.031,1095177
0.199,-0.119,-0.526,26.443,-9.221,-9.832,1099189
0.206,-0.109,-0.534,29.267,-11.176,-11.252,1103209
0.220,-0.114,-0.548,32.137,-13.298,-12.519,1107220
0.227,-0.102,-0.572,36.046,-15.588,-13.145,1111231
0.215,-0.107,-0.594,39.908,-17.359,-13.389,1115242
0.211,-0.122,-0.601,44.351,-18.626,-12.565,1119253
0.209,-0.128,-0.613,48.702,-19.969,-10.962,1123274
0.208,-0.143,-0.640,53.573,-20.504,-8.763,1127285
0.202,-0.164,-0.654,58.397,-20.504,-6.427,1131296
0.198,-0.175,-0.690,63.313,-19.878,-3.359,1135308
0.202,-0.186,-0.719,68.260,-18.916,-0.473,1139319
0.205,-0.217,-0.752,72.656,-17.206,2.611,1143337
0.212,-0.239,-0.780,76.519,-15.252,5.710,1147347
0.215,-0.250,-0.805,79.710,-12.992,8.733,1151358
0.220,-0.285,-0.851,83.069,-10.840,11.954,1155369
0.238,-0.307,-0.888,85.664,-8.779,14.504,1159380
0.259,-0.341,-0.913,87.053,-6.687,16.672,1163391
0.273,-0.356,-0.947,89.511,-4.779,18.977,1167402
0.285,-0.390,-0.978,89.634,-2.611,20.473,1171413
0.297,-0.414,-1.014,91.664,-1.328,22.427,1175424
0.319,-0.434,-1.039,92.092,-0.290,23.557,1179435
0.342,-0.462,-1.075,92.977,-0.031,23.527,1183446
0.364,-0.485,-1.093,92.366,-0.214,22.412,1187458
0.362,-0.499,-1.106,92.137,-0.534,21.557,1191468
0.361,-0.514,-1.128,91.710,-1.466,20.229,1195480
0.362,-0.514,-1.149,92.061,-2.733,19.252,1199491
0.369,-0.534,-1.149,91.756,-4.183,17.359,1203501
0.366,-0.540,-1.167,90.641,-6.031,14.992,1207512
0.368,-0.552,-1.163,90.626,-7.802,11.756,1211523
0.363,-0.558,-1.182,91.450,-9.954,8.763,1215534
0.355,-0.555,-1.181,91.206,-12.458,6.687,1219545
0.352,-0.561,-1.203,90.107,-14.855,4.473,1223556
0.345,-0.583,-1.216,91.695,-17.908,2.550,1227568
0.346,-0.594,-1.234,90.504,-20.885,0.824,1231579
0.344,-0.607,-1.246,90.198,-25.023,-0.443,1235591
0.333,-0.617,-1.268,89.435,-28.992,-1.420,1239602
0.327,-0.629,-1.262,90.321,-33.115,-1.389,1243622
0.305,-0.649,-1.280,89.695,-36.260,-1.481,1247633
0.280,-0.651,-1.295,89.374,-38.214,-0.260,1251644
0.267,-0.651,-1.298,91.237,-39.466,2.198,1255655
0.243,-0.664,-1.305,91.893,-40.107,4.687,1259666
0.231,-0.666,-1.319,93.740,-39.496,7.969,1263687
0.217,-0.683,-1.339,95.099,-38.305,11.588,1267698
0.204,-0.709,-1.358,96.519,-36.504,15.328,1271710
0.203,-0.731,-1.375,97.618,-33.664,19.679,1275721
0.198,-0.750,-1.396,98.702,-30.244,24.916,1279732
0.190,-0.769,-1.411,99.542,-27.008,30.580,1283744
0.183,-0.790,-1.440,100.168,-23.252,36.580,1287754
0.200,-0.815,-1.468,100.672,-19.817,41.695,1291765
0.215,-0.837,-1.479,100.427,-15.740,47.420,1295776
0.240,-0.879,-1.504,99.740,-11.267,53.084,1299787
0.240,-0.907,-1.533,97.863,-8.122,57.802,1303800
0.241,-0.912,-1.564,95.252,-4.397,62.015,1307811
0.244,-0.924,-1.552,93.099,0.809,66.504,1311821
0.247,-0.939,-1.581,90.702,6.214,70.275,1315832
0.252,-0.953,-1.590,87.527,11.527,73.282,1319843
0.271,-0.953,-1.597,83.985,16.611,75.740,1323864
0.296,-0.951,-1.604,80.748,20.992,78.046,1327875
0.308,-0.946,-1.625,77.405,25.710,80.076,1331887
0.326,-0.940,-1.616,73.679,29.847,81.328,1335897
0.341,-0.939,-1.629,70.046,33.115,83.053,1339917
0.359,-0.934,-1.635,65.847,35.969,83.511,1343928
0.380,-0.929,-1.630,61.634,37.405,83.725,1347939
0.399,-0.923,-1.632,56.870,38.733,83.405,1351950
0.404,-0.907,-1.616,52.748,39.679,82.305,1355961
0.430,-0.902,-1.608,48.427,40.000,80.901,1359972
0.449,-0.898,-1.598,43.756,39.725,78.580,1363983
0.462,-0.889,-1.592,38.947,38.656,75.527,1367995
0.485,-0.883,-1.573,33.420,36.824,71.496,1372006
0.494,-0.877,-1.564,27.847,34.458,67.115,1376017
0.491,-0.867,-1.547,22.351,32.061,62.397,1380028
0.480,-0.846,-1.515,17.053,29.542,57.191,1384039
0.483,-0.822,-1.491,12.550,26.947,51.298,1388050
0.480,-0.792,-1.458,8.611,24.672,45.160,1392061
0.474,-0.775,-1.438,5.160,22.321,38.214,1396072
0.472,-0.748,-1.411,2.244,20.076,31.221,1400084
0.471,-0.739,-1.380,-0.305,17.527,24.321,1404095
0.452,-0.717,-1.346,-2.443,15.160,17.802,1408106
0.450,-0.697,-1.325,-4.473,11.985,10.947,1412118
0.438,-0.684,-1.282,-6.061,8.489,4.473,1416128
0.424,-0.667,-1.269,-7.557,4.947,-1.924,1420139
0.415,-0.651,-1.244,-8.855,1.359,-8.031,1424150
0.390,-0.640,-1.211,-9.786,-2.366,-13.496,1428157
0.380,-0.630,-1.179,-10.595,-5.710,-18.885,1432168
0.354,-0.620,-1.167,-11.038,-8.779,-23.191,1436179
0.323,-0.612,-1.144,-11.450,-11.817,-27.145,1440190
0.299,-0.598,-1.122,-11.786,-13.496,-30.321,1444201
0.271,-0.583,-1.113,-12.107,-15.313,-33.099,1448213
0.250,-0.583,-1.096,-12.473,-16.733,-34.824,1452224
0.219,-0.575,-1.081,-12.702,-17.359,-35.786,1456236
0.202,-0.579,-1.050,-13.069,-17.557,-36.031,1460247
0.187,-0.576,-1.056,-13.282,-17.053,-35.832,1464258
0.174,-0.581,-1.025,-13.924,-16.336,-35.008,1468270
0.166,-0.578,-1.017,-14.260,-15.206,-34.000,1472281
0.160,-0.577,-1.001,-14.809,-13.756,-32.748,1476292
0.147,-0.570,-0.993,-14.855,-12.229,-31.695,1480303
0.127,-0.558,-0.965,-14.947,-10.992,-30.015,1484314
0.134,-0.549,-0.967,-15.267,-9.557,-27.893,1488326
0.129,-0.557,-0.954,-15.435,-7.985,-25.893,1492336
0.137,-0.549,-0.962,-15.481,-6.565,-24.168,1496347
0.146,-0.558,-0.931,-15.389,-5.649,-21.969,1500358
0.142,-0.535,-0.945,-15.130,-4.214,-20.107,1504369
0.156,-0.529,-0.929,-14.305,-2.870,-18.595,1508380
0.149,-0.513,-0.929,-13.527,-2.168,-17.069,1512391
0.153,-0.509,-0.911,-12.763,-1.634,-15.481,1516402
0.156,-0.513,-0.910,-11.817,-1.557,-13.954,1520413
0.159,-0.511,-0.899,-10.977,-0.992,-12.840,1524424
0.164,-0.510,-0.891,-10.153,-0.519,-11.542,1528434
0.163,-0.515,-0.899,-9.405,-0.321,-10.443,1532445
0.169,-0.513,-0.896,-8.916,-0.031,-9.740,1536456
0.171,-0.525,-0.899,-8.641,0.473,-8.824,1540467
0.175,-0.525,-0.897,-8.321,0.840,-8.061,1544478
0.178,-0.542,-0.906,-8.366,0.748,-6.947,1548489
0.181,-0.542,-0.906,-8.595,0.779,-5.939,1552500
0.191,-0.546,-0.903,-8.565,1.374,-5.267,1556511
0.189,-0.550,-0.896,-8.458,1.374,-4.412,1560522
0.192,-0.554,-0.899,-8.534,1.603,-3.191,1564533
0.207,-0.555,-0.906,-8.504,1.908,-2.382,1568545
0.209,-0.563,-0.898,-8.412,2.427,-1.725,1572555
0.209,-0.558,-0.910,-8.305,3.084,-1.389,1576566
0.201,-0.562,-0.902,-8.198,3.435,-1.145,1580577
0.211,-0.570,-0.918,-8.015,4.015,-0.885,1584588
0.215,-0.579,-0.921,-8.122,4.672,-1.023,1588599
0.227,-0.583,-0.926,-8.443,5.252,-1.298,1592610
0.229,-0.579,-0.927,-8.565,5.786,-1.603,1596621
0.234,-0.581,-0.943,-8.947,5.802,-1.924,1600632
0.238,-0.577,-0.933,-8.992,5.802,-2.122,1604643
0.241,-0.582,-0.930,-9.221,5.527,-2.519,1608654
0.246,-0.577,-0.932,-8.962,4.916,-2.489,1612674
0.250,-0.578,-0.931,-8.962,4.260,-2.962,1616685
0.246,-0.575,-0.935,-8.779,3.832,-2.947,1620696
0.249,-0.569,-0.917,-7.985,3.511,-3.206,1624707
0.251,-0.568,-0.927,-7.344,3.405,-3.389,1628719
0.246,-0.566,-0.917,-6.366,3.053,-3.573,1632729
0.241,-0.567,-0.922,-5.527,3.267,-3.863,1636740
0.245,-0.570,-0.920,-4.947,3.145,-4.489,1640751
0.242,-0.571,-0.927,-4.137,2.931,-4.840,1644762
0.243,-0.562,-0.929,-3.710,2.687,-5.206,1648775
0.237,-0.567,-0.926,-3.374,2.198,-5.603,1652786
0.231,-0.575,-0.929,-3.115,2.046,-5.695,1656798
0.224,-0.575,-0.927,-2.992,2.015,-5.908,1660809
0.227,-0.583,-0.942,-2.870,1.939,-6.321,1664820
0.223,-0.586,-0.940,-2.992,2.122,-6.351,1668831
0.215,-0.580,-0.944,-3.099,2.366,-6.885,1672842
0.215,-0.588,-0.939,-3.328,2.565,-6.687,1676853
0.214,-0.589,-0.956,-3.588,2.840,-6.916,1680864
0.209,-0.587,-0.951,-3.954,3.221,-7.099,1684875
0.209,-0.582,-0.949,-4.031,3.496,-7.069,1688887
0.208,-0.582,-0.947,-4.244,3.573,-6.840,1692899
0.215,-0.576,-0.950,-4.321,3.695,-6.885,1696910
0.215,-0.577,-0.942,-4.427,3.802,-6.809,1700921
0.207,-0.587,-0.952,-4.687,4.046,-6.672,1704932
0.207,-0.581,-0.946,-4.779,4.214,-6.321,1708943
0.202,-0.582,-0.948,-5.023,4.626,-6.290,1712963
0.214,-0.575,-0.952,-5.069,4.397,-5.878,1716975
0.216,-0.573,-0.946,-5.145,4.534,-5.756,1720986
0.218,-0.559,-0.944,-4.809,4.687,-5.405,1724997
0.211,-0.563,-0.941,-4.214,4.198,-4.824,1729008
0.216,-0.551,-0.936,-3.740,3.939,-4.351,1733028
0.232,-0.545,-0.936,-2.672,4.290,-4.366,1737040
0.225,-0.547,-0.927,-1.786,3.908,-4.031,1741050
0.222,-0.548,-0.949,-1.023,3.710,-3.908,1745061
0.217,-0.547,-0.940,-0.275,3.664,-3.664,1749072
0.221,-0.548,-0.932,0.565,3.832,-3.771,1753090
0.223,-0.546,-0.939,0.840,3.359,-3.817,1757101
0.217,-0.558,-0.950,1.038,2.458,-3.618,1761112
0.218,-0.556,-0.947,1.160,2.107,-3.359,1765123
0.218,-0.563,-0.954,1.160,2.000,-3.267,1769134
0.220,-0.573,-0.950,0.763,1.679,-3.359,1773144
0.217,-0.575,-0.952,0.214,1.618,-3.695,1777156
0.212,-0.573,-0.970,-0.351,1.603,-3.802,1781166
0.212,-0.574,-0.969,-1.206,1.588,-4.046,1785177
0.216,-0.560,-0.967,-1.725,1.496,-4.397,1789189
0.215,-0.568,-0.967,-2.382,1.466,-4.214,1793209
0.207,-0.567,-0.972,-2.977,1.435,-4.351,1797220
0.213,-0.565,-0.968,-2.916,1.649,-4.672,1801231
0.208,-0.563,-0.983,-3.008,1.878,-4.565,1805242
0.215,-0.558,-0.972,-3.069,1.649,-4.427,1809253
0.220,-0.563,-0.963,-2.992,1.725,-4.229,1813274
0.220,-0.563,-0.975,-2.855,1.863,-4.198,1817285
0.223,-0.558,-0.971,-2.809,1.863,-4.000,1821296
0.222,-0.554,-0.975,-2.794,2.031,-4.000,1825308
0.216,-0.552,-0.966,-2.382,1.924,-3.618,1829319
0.219,-0.552,-0.974,-2.076,1.802,-3.466,1833337
0.223,-0.556,-0.966,-1.420,1.557,-3.344,1837347
0.218,-0.544,-0.970,-0.840,1.420,-3.099,1841358
0.232,-0.547,-0.965,-0.443,0.977,-3.053,1845369
0.227,-0.549,-0.966,-0.275,0.565,-2.962,1849380
0.223,-0.549,-0.968,-0.015,0.397,-3.084,1853391
0.223,-0.557,-0.968,-0.031,0.076,-3.023,1857402
0.220,-0.559,-0.978,-0.244,-0.321,-2.901,1861413
0.222,-0.565,-0.974,-0.550,-0.397,-3.130,1865424
0.220,-0.570,-0.982,-1.053,-0.305,-2.947,1869435
0.213,-0.569,-0.979,-1.679,-0.473,-3.084,1873446
0.209,-0.567,-0.978,-2.321,-0.290,-3.053,1877458
0.206,-0.570,-0.976,-3.053,-0.031,-3.130,1881468
0.207,-0.568,-0.979,-3.679,0.855,-2.916,1885480
0.207,-0.562,-0.979,-4.321,1.298,-2.794,1889491
0.214,-0.568,-0.980,-4.641,2.107,-2.626,1893501
0.214,-0.563,-0.975,-5.145,2.427,-2.611,1897512
0.214,-0.571,-0.970,-5.389,2.931,-2.443,1901523
0.219,-0.559,-0.978,-5.496,2.885,-2.137,1905534
0.218,-0.562,-0.966,-5.771,3.237,-1.695,1909545
0.222,-0.557,-0.970,-5.817,3.008,-1.389,1913556
0.227,-0.557,-0.971,-5.603,3.053,-1.130,1917568
0.220,-0.557,-0.963,-5.313,2.779,-0.779,1921579
0.225,-0.552,-0.965,-5.145,2.702,-0.641,1925591
0.229,-0.550,-0.970,-4.840,2.565,-0.489,1929602
0.225,-0.555,-0.972,-4.718,2.366,-0.183,1933622
0.226,-0.560,-0.971,-4.733,2.229,-0.046,1937633
0.217,-0.557,-0.969,-4.748,2.015,0.061,1941644
0.224,-0.551,-0.971,-4.763,2.229,0.275,1945655
0.226,-0.558,-0.974,-4.809,1.985,0.229,1949666
0.227,-0.558,-0.964,-4.947,2.076,0.305,1953687
0.227,-0.562,-0.975,-5.038,2.473,0.840,1957698
0.226,-0.558,-0.962,-5.008,2.870,0.947,1961710
0.220,-0.560,-0.970,-4.977,3.252,1.069,1965721
0.229,-0.566,-0.965,-5.008,3.435,1.221,1969732
0.233,-0.563,-0.964,-5.115,3.573,1.023,1973744
0.235,-0.566,-0.971,-5.176,3.527,1.099,1977754
0.228,-0.569,-0.965,-5.649,3.588,1.053,1981765
0.235,-0.576,-0.962,-5.802,3.298,0.885,1985776
0.239,-0.572,-0.964,-6.076,3.313,0.641,1989787
0.233,-0.580,-0.970,-6.305,3.496,0.290,1993800
0.240,-0.571,-0.956,-6.504,3.573,0.076,1997811
0.234,-0.576,-0.968,-6.702,3.511,-0.244,2001822
