acc_x,acc_y,acc_z,gyro_x,gyro_y,gyro_z,time
0.275,0.187,-1.084,-5.725,0.916,-1.206,0
0.280,0.201,-1.086,-6.611,0.214,-1.496,4051
0.279,0.199,-1.088,-7.328,-0.061,-1.679,8064
0.279,0.202,-1.083,-7.359,-0.718,-1.542,12075
0.272,0.211,-1.085,-7.115,-1.435,-1.237,16086
0.276,0.207,-1.077,-7.191,-1.817,-1.069,20097
0.275,0.212,-1.076,-7.450,-2.275,-1.069,24108
0.268,0.224,-1.073,-7.542,-2.443,-0.672,28118
0.262,0.220,-1.068,-7.374,-2.550,-0.489,32130
0.254,0.224,-1.069,-7.099,-1.847,-0.107,36140
0.245,0.222,-1.062,-6.137,-1.053,-0.122,40151
0.242,0.220,-1.067,-5.282,0.153,0.198,44163
0.252,0.226,-1.065,-4.992,1.130,0.122,48171
0.252,0.226,-1.064,-4.855,2.443,0.412,52182
0.255,0.216,-1.067,-4.641,3.130,0.504,56193
0.252,0.220,-1.060,-4.427,3.786,0.595,60204
0.265,0.217,-1.065,-4.351,4.168,0.565,64215
0.270,0.211,-1.068,-4.137,4.183,0.626,68227
0.271,0.208,-1.075,-4.336,3.832,0.687,72238
0.277,0.197,-1.084,-4.397,3.542,0.855,76249
0.272,0.206,-1.071,-5.053,2.992,0.733,80260
0.270,0.201,-1.079,-5.496,2.397,0.611,84271
0.263,0.206,-1.075,-5.847,2.015,0.794,88283
0.272,0.205,-1.069,-6.427,1.420,0.534,92294
0.269,0.211,-1.065,-6.137,1.328,0.260,96306
0.271,0.209,-1.073,-5.725,1.023,-0.031,100317
0.267,0.212,-1.074,-5.588,0.168,-0.321,104328
0.264,0.204,-1.072,-5.893,0.397,-0.351,108340
0.280,0.212,-1.073,-6.885,-1.267,-1.221,112351
0.270,0.215,-1.066,-6.611,-0.656,-1.389,116363
0.256,0.213,-1.077,-6.656,-2.107,0.290,120373
0.274,0.212,-1.066,-5.924,-1.786,1.298,124384
0.269,0.220,-1.076,-5.145,-1.221,1.160,128395
0.251,0.233,-1.072,-4.336,-0.885,0.840,132406
0.250,0.229,-1.073,-4.137,-0.550,0.656,136417
0.241,0.216,-1.070,-4.015,0.458,1.420,140428
0.247,0.217,-1.073,-3.954,1.542,1.191,144439
0.248,0.210,-1.068,-3.573,2.000,1.038,148450
0.252,0.208,-1.077,-3.847,2.992,1.130,152461
0.249,0.202,-1.083,-3.863,3.649,1.084,156472
0.260,0.191,-1.084,-3.969,3.634,0.855,160483
0.269,0.199,-1.080,-4.305,3.099,0.519,164494
0.275,0.195,-1.083,-5.115,2.519,0.565,168505
0.277,0.188,-1.084,-6.046,1.573,0.672,172516
0.278,0.191,-1.085,-7.069,1.053,0.595,176527
0.278,0.194,-1.083,-7.405,0.718,0.794,180538
0.270,0.202,-1.081,-7.191,0.229,1.038,184549
0.267,0.208,-1.083,-7.038,0.229,1.237,188559
0.257,0.217,-1.074,-6.290,0.473,1.313,192571
0.259,0.226,-1.076,-5.847,0.794,1.450,196581
0.266,0.223,-1.075,-5.527,1.206,1.252,200592
0.261,0.223,-1.075,-5.008,1.786,1.252,204603
0.264,0.213,-1.074,-4.137,2.107,1.252,208615
0.275,0.209,-1.075,-3.649,2.244,1.405,212626
0.275,0.201,-1.072,-3.206,2.351,1.206,216637
0.291,0.197,-1.083,-3.496,2.168,1.160,220648
0.285,0.199,-1.081,-4.046,1.771,1.099,224659
0.290,0.193,-1.080,-4.931,1.573,0.687,228671
0.283,0.192,-1.083,-5.557,1.084,0.611,232690
0.288,0.195,-1.091,-5.893,0.504,0.565,236701
0.294,0.203,-1.085,-5.924,0.000,0.427,240712
0.284,0.206,-1.089,-5.893,-0.046,0.168,244723
0.285,0.205,-1.078,-6.107,-0.168,0.122,248736
0.288,0.205,-1.071,-6.305,-0.473,-0.015,252747
0.273,0.208,-1.075,-6.427,-0.290,-0.443,256758
0.267,0.206,-1.070,-6.336,0.321,-0.885,260769
0.268,0.221,-1.071,-6.000,0.458,-1.084,264780
0.259,0.212,-1.073,-5.756,1.160,-0.992,268793
0.260,0.207,-1.069,-5.527,1.649,-0.519,272804
0.258,0.207,-1.073,-5.771,2.107,-0.656,276815
0.261,0.210,-1.071,-6.076,2.443,-0.626,280826
0.265,0.211,-1.070,-6.290,2.473,-0.397,284837
0.266,0.216,-1.070,-6.366,2.168,-0.412,288848
0.265,0.227,-1.071,-6.092,2.076,-0.153,292858
0.270,0.227,-1.071,-5.435,2.107,0.168,296869
0.269,0.234,-1.066,-4.611,2.244,0.229,300880
0.270,0.246,-1.061,-4.275,1.649,0.214,304891
0.260,0.235,-1.056,-3.847,1.908,0.107,308903
0.270,0.242,-1.065,-4.092,1.466,0.229,312914
0.267,0.251,-1.061,-4.031,1.496,0.489,316925
0.262,0.246,-1.054,-3.924,1.099,0.473,320936
0.266,0.251,-1.049,-3.969,1.145,0.534,324948
0.265,0.260,-1.060,-3.817,0.702,0.122,328959
0.261,0.272,-1.053,-3.832,0.702,0.336,332978
0.260,0.278,-1.059,-3.908,0.473,0.336,336989
0.254,0.291,-1.052,-3.847,0.366,0.412,341000
0.254,0.297,-1.060,-3.969,0.107,0.229,345011
0.251,0.308,-1.062,-3.740,-0.122,0.168,349022
0.244,0.313,-1.057,-3.344,-0.168,0.046,353043
0.250,0.322,-1.056,-2.931,-0.076,-0.122,357055
0.249,0.331,-1.064,-2.870,0.107,-0.489,361065
0.250,0.349,-1.064,-2.733,0.076,-0.733,365076
0.255,0.367,-1.073,-2.580,-0.061,-1.115,369087
0.263,0.382,-1.074,-2.351,-0.183,-1.130,373101
0.268,0.394,-1.081,-1.374,-0.275,-1.160,377112
0.272,0.406,-1.078,-0.504,-0.580,-1.542,381123
0.277,0.419,-1.089,0.565,-1.206,-1.771,385134
0.286,0.422,-1.106,1.328,-1.679,-2.092,389145
0.291,0.440,-1.118,1.588,-2.275,-2.244,393158
0.296,0.442,-1.128,2.321,-3.435,-1.771,397169
0.288,0.455,-1.121,2.061,-4.382,-0.595,401180
0.285,0.450,-1.135,1.389,-4.855,0.107,405191
0.286,0.447,-1.150,0.611,-5.740,-0.748,409202
0.287,0.447,-1.147,-0.397,-6.672,-2.122,413223
0.282,0.454,-1.158,-1.756,-8.076,-3.008,417234
0.285,0.466,-1.158,-3.145,-8.840,-2.901,421245
0.275,0.469,-1.156,-4.473,-9.634,-2.244,425256
0.278,0.481,-1.165,-5.557,-10.214,-1.191,429268
0.268,0.491,-1.166,-6.672,-10.534,-1.023,433289
0.272,0.492,-1.153,-8.031,-10.641,-1.573,437299
0.265,0.495,-1.150,-9.450,-10.718,-2.718,441310
0.267,0.486,-1.134,-10.824,-10.534,-4.198,445321
0.269,0.488,-1.127,-12.244,-9.527,-6.351,449332
0.255,0.490,-1.123,-14.153,-9.099,-8.580,453350
0.264,0.487,-1.111,-16.275,-8.534,-10.489,457361
0.257,0.503,-1.098,-18.031,-7.969,-12.061,461372
0.258,0.505,-1.081,-19.634,-7.176,-12.992,465383
0.258,0.522,-1.077,-20.031,-7.023,-13.710,469394
0.263,0.550,-1.088,-18.962,-6.580,-13.908,473405
0.261,0.576,-1.099,-16.122,-6.229,-13.267,477416
0.273,0.584,-1.103,-13.771,-6.916,-11.481,481427
0.289,0.580,-1.113,-11.038,-7.954,-8.672,485439
0.301,0.571,-1.139,-7.481,-9.252,-5.588,489450
0.314,0.564,-1.148,-3.282,-10.366,-2.565,493461
0.331,0.572,-1.178,0.824,-12.305,0.198,497472
0.340,0.567,-1.188,3.969,-14.397,2.718,501484
0.354,0.543,-1.205,6.275,-16.885,4.672,505494
0.374,0.516,-1.209,7.115,-19.298,5.405,509505
0.376,0.501,-1.209,6.214,-20.916,5.176,513515
0.325,0.460,-1.213,5.176,-20.382,5.557,517526
0.349,0.471,-1.198,3.069,-17.038,2.565,521537
0.303,0.406,-1.217,-1.603,-17.710,6.885,525548
0.318,0.393,-1.207,-7.298,-12.748,5.847,529559
0.329,0.421,-1.209,-12.641,-10.595,-2.672,533569
0.288,0.414,-1.203,-18.992,-11.069,-10.153,537581
0.277,0.393,-1.204,-25.557,-9.618,-14.305,541591
0.298,0.383,-1.175,-32.122,-7.221,-17.069,545602
0.333,0.395,-1.165,-37.664,-4.855,-20.916,549614
0.321,0.420,-1.143,-42.565,-3.588,-24.366,553634
0.299,0.451,-1.121,-46.229,-3.359,-27.160,557646
0.271,0.474,-1.114,-48.427,-3.924,-29.038,561657
0.259,0.498,-1.099,-49.832,-4.656,-30.198,565668
0.253,0.521,-1.072,-50.275,-5.725,-30.412,569679
0.253,0.528,-1.052,-49.634,-7.206,-29.786,573700
0.239,0.536,-1.029,-48.382,-8.718,-29.160,577713
0.219,0.545,-1.023,-46.748,-10.427,-27.191,581724
0.209,0.565,-0.996,-44.748,-11.435,-24.977,585736
0.192,0.574,-0.974,-42.397,-12.687,-22.336,589747
0.191,0.588,-0.966,-39.817,-14.229,-19.542,593757
0.190,0.588,-0.949,-37.252,-14.427,-16.336,597767
0.181,0.591,-0.951,-34.519,-15.252,-12.779,601778
0.187,0.595,-0.945,-30.916,-15.084,-9.542,605789
0.179,0.604,-0.936,-26.855,-15.389,-6.473,609800
0.178,0.600,-0.932,-23.450,-14.611,-4.504,613811
0.177,0.584,-0.940,-20.718,-13.053,-3.084,617821
0.172,0.554,-0.938,-18.412,-11.252,-2.290,621832
0.195,0.517,-0.952,-17.664,-9.466,-3.298,625843
0.204,0.477,-0.952,-18.305,-7.557,-5.115,629854
0.210,0.440,-0.969,-19.695,-5.939,-6.611,633874
0.210,0.420,-0.970,-21.679,-4.244,-8.809,637886
0.196,0.412,-0.973,-23.237,-2.794,-10.382,641897
0.187,0.427,-0.965,-24.580,-0.702,-11.802,645908
0.185,0.439,-0.969,-25.863,0.931,-12.168,649920
0.155,0.422,-0.938,-25.863,3.954,-9.145,653931
0.188,0.436,-0.955,-25.618,5.420,-9.191,657942
0.198,0.435,-0.954,-25.359,6.382,-9.695,661953
0.205,0.421,-0.951,-24.748,6.565,-8.580,665964
0.215,0.416,-0.954,-23.832,5.786,-6.641,669975
0.231,0.413,-0.948,-22.565,4.656,-5.038,673986
0.252,0.411,-0.930,-20.718,2.321,-4.198,677998
0.273,0.409,-0.932,-18.000,-0.626,-3.511,682009
0.294,0.398,-0.928,-15.466,-4.885,-2.534,686020
0.292,0.399,-0.915,-12.595,-9.496,-0.947,690031
0.285,0.400,-0.910,-9.954,-12.885,0.168,694042
0.272,0.394,-0.904,-6.733,-16.153,0.916,698054
0.254,0.389,-0.912,-4.336,-19.038,0.260,702065
0.224,0.363,-0.911,-3.023,-20.916,-0.702,706077
0.193,0.351,-0.909,-1.634,-21.328,-1.695,710087
0.157,0.319,-0.914,-0.641,-20.992,-1.924,714098
0.125,0.303,-0.922,0.031,-20.061,-1.573,718109
0.105,0.299,-0.912,0.427,-17.160,-0.977,722120
0.073,0.299,-0.923,1.939,-14.031,0.458,726131
0.073,0.298,-0.938,3.695,-11.008,1.847,730142
0.092,0.285,-0.955,5.664,-9.405,3.450,734153
0.115,0.275,-0.953,7.389,-8.290,5.435,738166
0.140,0.261,-0.976,9.435,-8.672,7.557,742177
0.163,0.238,-0.977,10.550,-9.588,8.855,746188
0.198,0.213,-0.992,11.023,-12.626,9.679,750199
0.217,0.196,-0.997,11.389,-15.389,9.664,754210
0.229,0.188,-1.003,11.176,-19.450,9.588,758222
0.239,0.188,-1.001,11.710,-22.626,9.252,762233
0.230,0.182,-1.020,12.947,-26.076,9.725,766244
0.221,0.195,-1.015,14.336,-28.229,10.137,770255
0.194,0.192,-1.026,16.443,-29.832,10.656,774266
0.179,0.182,-1.022,18.260,-30.397,11.511,778278
0.152,0.182,-1.029,20.641,-30.305,11.863,782289
0.158,0.170,-1.067,22.534,-29.237,11.466,786301
0.166,0.150,-1.077,24.198,-29.069,11.511,790311
0.168,0.130,-1.092,25.252,-28.809,11.237,794322
0.158,0.104,-1.107,25.542,-28.687,11.542,798334
0.154,0.089,-1.122,25.786,-28.046,11.405,802345
0.160,0.071,-1.135,26.244,-27.450,10.489,806356
0.154,0.064,-1.150,27.237,-26.336,10.061,810367
0.146,0.069,-1.166,27.817,-25.725,10.031,814378
0.143,0.053,-1.179,28.321,-24.947,10.336,818389
0.134,0.040,-1.191,29.053,-23.863,11.267,822400
0.139,0.025,-1.183,29.252,-23.130,12.275,826412
0.131,0.025,-1.198,29.282,-22.489,13.206,830423
0.117,0.034,-1.192,29.466,-21.618,14.290,834434
0.116,0.030,-1.198,29.893,-20.947,14.641,838444
0.107,0.018,-1.197,29.740,-20.489,14.489,842456
0.107,-0.008,-1.206,29.038,-20.275,14.031,846466
0.097,-0.046,-1.208,28.611,-20.779,13.649,850477
0.093,-0.049,-1.217,28.427,-20.687,13.832,854488
0.099,-0.080,-1.228,27.053,-21.450,13.634,858499
0.107,-0.102,-1.228,25.053,-22.550,13.542,862510
0.108,-0.104,-1.232,23.053,-23.374,13.359,866521
0.090,-0.110,-1.236,21.435,-23.069,13.191,870532
0.067,-0.101,-1.218,20.168,-22.901,13.008,874543
0.039,-0.079,-1.208,19.954,-22.000,13.573,878555
0.016,-0.053,-1.198,20.840,-19.832,15.328,882566
-0.011,-0.048,-1.175,22.229,-16.809,18.015,886578
-0.024,-0.043,-1.160,23.832,-13.191,22.275,890589
-0.023,-0.043,-1.136,25.649,-9.664,26.305,894600
-0.028,-0.047,-1.125,27.130,-6.580,29.893,898612
-0.031,-0.074,-1.116,28.412,-3.634,33.710,902623
-0.032,-0.104,-1.102,30.015,-0.977,36.947,906635
-0.023,-0.135,-1.104,31.924,0.779,40.092,910646
0.000,-0.155,-1.102,33.084,1.511,42.702,914657
0.029,-0.171,-1.099,34.031,3.130,44.473,918669
0.043,-0.184,-1.104,34.260,3.328,45.237,922688
0.025,-0.186,-1.084,34.504,4.305,45.557,926699
0.014,-0.178,-1.082,34.733,5.206,46.061,930710
0.010,-0.201,-1.090,34.092,6.290,46.519,934721
0.007,-0.224,-1.088,32.214,5.450,47.527,938733
0.024,-0.252,-1.070,31.359,6.641,49.389,942745
0.046,-0.260,-1.082,30.229,6.382,50.794,946757
0.092,-0.260,-1.080,29.038,5.939,51.405,950767
0.130,-0.268,-1.071,26.870,5.191,50.611,954778
0.144,-0.256,-1.062,25.252,3.893,48.931,958791
0.146,-0.262,-1.065,23.908,2.321,47.649,962802
0.160,-0.256,-1.065,23.221,0.916,46.366,966813
0.174,-0.241,-1.057,23.649,-0.947,44.977,970824
0.184,-0.226,-1.054,24.305,-3.160,44.824,974835
0.193,-0.208,-1.060,24.855,-5.206,43.969,978846
0.182,-0.197,-1.059,25.267,-6.962,43.237,982856
0.176,-0.174,-1.061,24.931,-8.702,42.702,986868
0.156,-0.167,-1.059,25.191,-9.481,42.763,990878
0.141,-0.163,-1.070,25.802,-10.656,42.855,994889
0.118,-0.146,-1.074,26.305,-10.962,42.672,998900
0.105,-0.130,-1.080,26.702,-10.427,42.198,1002915
0.075,-0.128,-1.083,26.305,-9.313,41.908,1006927
0.064,-0.132,-1.089,25.557,-8.092,42.733,1010938
0.085,-0.148,-1.096,23.756,-6.794,43.450,1014949
0.124,-0.170,-1.087,21.603,-6.198,42.809,1018960
0.164,-0.183,-1.086,19.313,-5.420,41.878,1022980
0.197,-0.184,-1.085,16.626,-5.985,40.198,1026991
0.242,-0.180,-1.078,14.290,-7.374,38.107,1031002
0.297,-0.164,-1.089,13.160,-10.183,35.221,1035013
0.344,-0.129,-1.090,11.802,-13.725,31.496,1039024
0.381,-0.107,-1.083,11.221,-18.427,27.496,1043045
0.399,-0.089,-1.091,10.412,-22.748,23.115,1047056
0.411,-0.060,-1.104,10.351,-26.947,18.244,1051067
0.408,-0.044,-1.103,9.863,-31.099,12.305,1055078
0.383,-0.038,-1.123,8.595,-34.916,6.748,1059090
0.340,-0.041,-1.121,6.962,-38.870,1.908,1063101
0.306,-0.042,-1.125,5.466,-41.344,-1.664,1067113
0.267,-0.032,-1.130,3.954,-43.557,-4.504,1071124
0.221,-0.026,-1.143,2.565,-44.168,-6.458,1075135
0.179,-0.020,-1.143,1.344,-43.847,-7.679,1079146
0.154,-0.019,-1.148,-0.443,-42.168,-8.565,1083159
0.119,-0.020,-1.148,-2.489,-39.725,-9.511,1087169
0.101,-0.020,-1.148,-4.977,-35.924,-10.092,1091180
0.077,-0.030,-1.140,-7.099,-31.389,-10.733,1095191
0.068,-0.033,-1.129,-8.382,-26.229,-10.687,1099202
0.058,-0.017,-1.125,-9.847,-20.992,-10.931,1103223
0.058,-0.013,-1.118,-10.962,-15.893,-10.611,1107234
0.060,0.008,-1.104,-11.756,-11.145,-10.137,1111245
0.067,0.021,-1.093,-12.015,-6.672,-9.924,1115256
0.081,0.045,-1.097,-12.427,-2.885,-9.924,1119267
0.089,0.044,-1.088,-13.023,0.260,-10.137,1123288
0.097,0.043,-1.093,-13.771,2.336,-10.046,1127299
0.118,0.031,-1.087,-14.763,4.092,-9.832,1131310
0.121,0.041,-1.096,-15.481,4.397,-9.328,1135321
0.132,0.048,-1.078,-15.786,4.061,-8.947,1139332
0.135,0.068,-1.063,-15.573,3.618,-8.153,1143350
0.155,0.093,-1.062,-14.565,2.336,-7.389,1147361
0.173,0.111,-1.062,-13.649,0.137,-7.756,1151372
0.185,0.114,-1.058,-12.611,-1.817,-8.718,1155383
0.189,0.118,-1.056,-11.359,-3.221,-9.634,1159394
0.184,0.109,-1.059,-10.122,-4.763,-10.397,1163406
0.177,0.112,-1.063,-8.901,-6.229,-11.237,1167416
0.170,0.117,-1.074,-7.863,-8.076,-12.321,1171427
0.154,0.103,-1.082,-7.435,-9.573,-13.023,1175438
0.134,0.089,-1.085,-8.260,-11.542,-13.023,1179449
0.112,0.087,-1.097,-9.176,-12.992,-12.336,1183460
0.093,0.084,-1.106,-9.878,-12.916,-11.649,1187471
0.068,0.098,-1.102,-10.397,-12.458,-10.702,1191482
0.047,0.105,-1.106,-11.252,-10.947,-9.649,1195493
0.025,0.102,-1.095,-11.908,-9.053,-8.092,1199504
0.006,0.107,-1.099,-12.382,-6.550,-6.489,1203515
-0.004,0.113,-1.090,-12.061,-2.962,-4.779,1207526
-0.004,0.125,-1.091,-10.840,1.115,-3.527,1211537
0.001,0.139,-1.081,-8.870,5.252,-2.427,1215548
0.012,0.155,-1.075,-6.977,8.687,-0.977,1219559
0.025,0.156,-1.073,-5.313,10.763,0.427,1223570
0.050,0.164,-1.076,-3.282,12.473,1.969,1227581
0.076,0.151,-1.078,-1.725,13.389,2.580,1231592
0.110,0.141,-1.088,0.076,13.511,3.008,1235604
0.137,0.150,-1.088,1.527,12.397,2.702,1239615
0.149,0.146,-1.104,2.855,10.718,2.305,1243636
0.159,0.155,-1.109,3.115,8.397,1.847,1247647
0.167,0.127,-1.127,3.359,5.634,1.267,1251658
0.162,0.116,-1.140,2.794,3.282,0.305,1255669
0.159,0.107,-1.143,2.092,0.824,-1.359,1259680
0.142,0.092,-1.159,0.916,-1.130,-2.427,1263701
0.133,0.090,-1.154,-0.672,-2.977,-3.557,1267713
0.113,0.078,-1.150,-2.809,-3.817,-4.351,1271724
0.094,0.074,-1.145,-5.130,-4.382,-4.733,1275736
0.072,0.070,-1.145,-6.992,-4.412,-4.809,1279747
0.061,0.075,-1.144,-8.458,-3.557,-5.282,1283757
0.057,0.076,-1.140,-9.710,-2.916,-5.450,1287767
0.064,0.092,-1.133,-10.397,-2.015,-5.695,1291778
0.064,0.103,-1.133,-10.901,-1.069,-5.588,1295789
0.068,0.116,-1.123,-10.641,-0.305,-5.252,1299800
0.071,0.120,-1.120,-10.137,0.137,-4.840,1303811
0.064,0.134,-1.112,-8.718,0.611,-4.412,1307821
0.084,0.141,-1.114,-7.374,0.412,-4.015,1311832
0.091,0.142,-1.107,-6.260,0.046,-3.221,1315843
0.100,0.141,-1.108,-5.145,-0.382,-2.901,1319854
0.111,0.129,-1.104,-4.061,-0.718,-2.397,1323874
0.099,0.133,-1.105,-3.176,-0.901,-2.198,1327886
0.094,0.131,-1.113,-2.336,-1.084,-2.275,1331897
0.098,0.126,-1.120,-2.168,-1.649,-2.168,1335908
0.096,0.123,-1.117,-2.076,-2.061,-2.000,1339920
0.090,0.113,-1.116,-2.427,-2.336,-2.214,1343931
0.097,0.104,-1.129,-2.748,-2.855,-2.229,1347942
0.088,0.099,-1.122,-3.053,-3.160,-2.611,1351953
0.088,0.100,-1.137,-3.542,-3.603,-3.191,1355964
0.082,0.107,-1.137,-3.756,-3.771,-3.481,1359975
0.079,0.109,-1.136,-4.290,-3.725,-3.176,1363986
0.077,0.110,-1.143,-4.687,-3.969,-3.191,1367998
0.083,0.114,-1.140,-4.855,-3.863,-2.931,1372009
0.083,0.114,-1.135,-5.053,-4.321,-2.870,1376020
0.089,0.107,-1.130,-5.344,-4.809,-2.855,1380031
0.101,0.114,-1.149,-5.191,-5.145,-2.489,1384042
0.103,0.121,-1.138,-5.145,-5.573,-2.626,1388054
0.105,0.137,-1.150,-4.580,-5.649,-2.229,1392065
0.089,0.141,-1.162,-4.443,-5.282,-1.878,1396077
0.083,0.141,-1.158,-4.656,-4.443,-1.206,1400087
0.072,0.132,-1.165,-4.672,-3.099,-0.473,1404098
0.055,0.122,-1.167,-4.885,-1.191,0.000,1408109
0.047,0.110,-1.159,-5.405,0.702,0.763,1412120
0.043,0.113,-1.165,-5.588,2.855,1.115,1416131
0.038,0.111,-1.167,-6.229,4.855,1.557,1420142
0.048,0.116,-1.157,-6.366,6.840,2.015,1424153
0.060,0.122,-1.147,-6.000,8.580,2.382,1428166
0.060,0.120,-1.144,-6.000,9.695,2.534,1432177
0.084,0.126,-1.145,-5.725,10.290,2.489,1436188
0.107,0.125,-1.143,-5.710,9.954,2.885,1440199
0.119,0.107,-1.146,-5.649,9.084,2.305,1444210
0.135,0.111,-1.142,-6.031,7.725,1.664,1448222
0.150,0.099,-1.135,-6.733,5.710,0.962,1452233
0.147,0.097,-1.137,-7.267,3.084,-0.321,1456244
0.150,0.099,-1.136,-7.695,1.252,-1.176,1460255
0.138,0.113,-1.134,-8.031,-0.611,-1.832,1464266
0.130,0.122,-1.140,-8.351,-2.000,-2.000,1468278
0.125,0.119,-1.141,-8.809,-2.916,-1.573,1472289
0.109,0.118,-1.141,-9.099,-3.145,-1.267,1476301
0.098,0.118,-1.140,-9.511,-2.840,-1.069,1480311
0.081,0.112,-1.120,-9.985,-1.832,-0.641,1484322
0.081,0.114,-1.127,-10.137,-0.382,-0.290,1488334
0.057,0.121,-1.116,-9.695,1.618,-0.076,1492345
0.056,0.132,-1.108,-8.733,3.389,0.275,1496356
0.067,0.142,-1.098,-7.649,5.145,0.443,1500367
0.080,0.135,-1.097,-7.008,6.336,0.595,1504378
0.095,0.130,-1.100,-6.336,7.069,0.992,1508389
0.111,0.130,-1.108,-6.229,6.336,1.145,1512400
0.129,0.107,-1.112,-6.321,5.817,1.252,1516412
0.146,0.102,-1.110,-6.733,4.305,0.794,1520423
0.157,0.100,-1.112,-7.603,2.733,0.076,1524434
0.161,0.103,-1.121,-8.061,0.947,-0.595,1528444
0.160,0.106,-1.115,-8.427,-0.519,-1.405,1532456
0.147,0.108,-1.115,-8.611,-1.481,-2.168,1536466
0.144,0.100,-1.109,-9.176,-2.198,-2.901,1540477
0.136,0.104,-1.109,-9.496,-2.412,-3.359,1544488
0.123,0.094,-1.106,-9.954,-2.122,-3.649,1548499
0.112,0.104,-1.099,-10.168,-1.573,-3.481,1552510
0.089,0.109,-1.094,-9.985,-0.427,-3.374,1556521
0.080,0.124,-1.083,-9.527,0.931,-2.947,1560532
0.076,0.129,-1.078,-8.947,2.229,-2.198,1564543
0.065,0.132,-1.065,-7.802,3.893,-1.344,1568555
0.068,0.144,-1.062,-6.137,5.084,-0.748,1572566
0.071,0.140,-1.058,-4.397,6.275,-0.260,1576578
0.075,0.143,-1.066,-2.870,6.565,0.382,1580589
0.094,0.135,-1.062,-1.863,6.336,0.443,1584600
0.106,0.125,-1.075,-1.084,6.092,0.916,1588612
0.121,0.124,-1.080,-0.748,5.008,1.191,1592623
0.130,0.110,-1.088,-0.794,3.466,0.748,1596635
0.141,0.112,-1.093,-1.191,1.740,0.137,1600646
0.140,0.108,-1.098,-1.603,0.061,-0.550,1604657
0.144,0.111,-1.108,-2.473,-1.145,-1.160,1608669
0.131,0.109,-1.123,-3.817,-2.092,-1.466,1612688
0.118,0.107,-1.125,-4.855,-2.626,-2.000,1616699
0.105,0.115,-1.121,-5.588,-2.656,-2.122,1620710
0.097,0.119,-1.116,-6.107,-2.580,-2.244,1624721
0.081,0.128,-1.117,-6.626,-1.603,-1.878,1628733
0.071,0.130,-1.116,-6.504,-0.427,-1.679,1632745
0.066,0.134,-1.112,-6.382,0.885,-1.603,1636757
0.066,0.132,-1.111,-5.893,2.061,-1.023,1640767
0.062,0.128,-1.093,-5.191,2.779,-0.977,1644778
0.072,0.124,-1.106,-4.519,3.786,-0.321,1648791
0.082,0.121,-1.097,-4.336,3.985,-0.076,1652802
0.091,0.115,-1.100,-3.924,4.031,0.305,1656813
0.109,0.116,-1.089,-3.802,3.771,-0.031,1660824
0.112,0.116,-1.099,-3.496,3.191,-0.076,1664835
0.113,0.126,-1.100,-3.527,2.794,-0.641,1668846
0.122,0.119,-1.092,-3.481,1.603,-1.496,1672856
0.128,0.117,-1.099,-3.603,0.611,-2.137,1676868
0.124,0.114,-1.113,-3.710,-0.427,-2.626,1680878
0.123,0.121,-1.096,-3.573,-1.649,-2.885,1684889
0.115,0.131,-1.099,-3.099,-2.427,-2.977,1688900
0.111,0.135,-1.116,-2.702,-3.237,-2.962,1692914
0.102,0.141,-1.104,-2.244,-3.969,-2.870,1696925
0.101,0.138,-1.108,-1.771,-4.092,-2.931,1700936
0.085,0.138,-1.124,-1.649,-4.275,-2.580,1704948
0.083,0.129,-1.111,-1.481,-4.275,-1.985,1708959
0.069,0.123,-1.110,-1.069,-3.649,-1.802,1712978
0.072,0.126,-1.114,-0.779,-3.176,-1.679,1716989
0.079,0.127,-1.125,-0.427,-2.198,-2.000,1721000
0.084,0.124,-1.118,-0.855,-1.847,-2.382,1725011
0.093,0.119,-1.136,-1.511,-2.000,-2.626,1729022
0.099,0.116,-1.146,-2.427,-2.397,-2.763,1733043
0.103,0.101,-1.152,-3.282,-2.489,-2.992,1737055
0.098,0.106,-1.161,-4.198,-3.115,-3.160,1741065
0.094,0.119,-1.154,-4.992,-3.023,-2.855,1745076
0.077,0.120,-1.164,-6.153,-3.038,-2.153,1749087
0.079,0.124,-1.150,-7.053,-2.733,-1.618,1753101
0.071,0.121,-1.139,-7.588,-1.878,-1.069,1757112
0.062,0.111,-1.143,-7.710,-0.397,-0.809,1761123
0.050,0.112,-1.128,-7.954,0.641,-0.580,1765134
0.049,0.115,-1.121,-7.344,1.985,-0.336,1769145
0.073,0.117,-1.113,-6.748,3.313,-0.183,1773158
0.078,0.131,-1.112,-5.969,4.046,-0.092,1777169
0.092,0.126,-1.109,-5.374,4.290,0.076,1781180
0.101,0.129,-1.109,-4.992,3.802,0.183,1785191
0.115,0.126,-1.109,-5.115,2.962,0.076,1789202
0.118,0.115,-1.114,-4.748,1.740,-0.076,1793223
0.115,0.106,-1.108,-4.901,0.824,-0.336,1797234
0.123,0.109,-1.117,-4.840,-0.321,-0.626,1801245
0.116,0.112,-1.115,-4.947,-1.115,-0.412,1805256
0.105,0.113,-1.110,-4.916,-2.122,-0.687,1809268
0.092,0.120,-1.106,-4.794,-2.260,-0.305,1813289
0.085,0.124,-1.106,-4.336,-2.122,-0.153,1817299
0.076,0.127,-1.108,-4.137,-1.038,0.382,1821310
0.068,0.125,-1.105,-3.496,-0.336,0.702,1825321
0.071,0.122,-1.113,-3.573,0.626,0.595,1829332
0.083,0.122,-1.118,-3.496,1.863,0.397,1833350
0.087,0.119,-1.109,-3.221,2.198,0.275,1837361
0.094,0.117,-1.122,-3.557,2.824,-0.061,1841372
0.109,0.118,-1.128,-3.618,2.595,-0.595,1845383
0.114,0.119,-1.131,-3.878,2.214,-0.550,1849394
0.119,0.123,-1.138,-4.137,1.664,-0.580,1853405
0.125,0.118,-1.134,-4.321,0.947,-0.855,1857416
0.132,0.117,-1.135,-4.916,0.137,-1.191,1861427
0.135,0.107,-1.138,-5.313,-0.672,-1.588,1865439
0.132,0.104,-1.134,-6.031,-1.603,-2.122,1869450
0.122,0.092,-1.131,-6.626,-2.015,-2.855,1873461
0.113,0.102,-1.130,-7.191,-2.366,-3.130,1877472
0.107,0.108,-1.124,-7.313,-2.122,-3.481,1881484
0.096,0.117,-1.121,-7.511,-1.664,-3.420,1885494
0.083,0.122,-1.123,-7.420,-0.916,-3.099,1889505
0.073,0.121,-1.106,-7.221,0.214,-2.916,1893515
0.068,0.121,-1.112,-7.313,1.817,-2.748,1897526
0.057,0.111,-1.123,-7.695,2.611,-2.305,1901537
0.064,0.105,-1.107,-8.092,3.282,-1.863,1905548
0.070,0.109,-1.113,-8.336,3.573,-1.435,1909559
0.070,0.113,-1.118,-8.336,3.298,-1.176,1913569
0.083,0.122,-1.100,-8.122,3.817,-0.351,1917581
0.086,0.132,-1.106,-7.802,3.344,0.534,1921591
0.088,0.136,-1.098,-7.344,3.481,0.992,1925602
0.096,0.125,-1.100,-6.794,2.931,1.176,1929614
0.097,0.122,-1.096,-5.679,3.267,0.962,1933634
0.102,0.118,-1.094,-5.267,2.992,0.427,1937646
0.100,0.115,-1.084,-4.779,3.053,0.183,1941657
0.110,0.119,-1.091,-4.504,2.885,0.092,1945668
0.099,0.114,-1.091,-4.351,2.855,-0.260,1949679
0.101,0.114,-1.086,-3.969,2.733,-0.550,1953700
0.094,0.118,-1.101,-3.664,3.023,-0.504,1957713
0.091,0.110,-1.096,-3.588,2.550,-0.992,1961724
0.092,0.114,-1.096,-3.435,2.580,-0.992,1965736
0.096,0.121,-1.097,-3.252,2.168,-1.450,1969747
0.090,0.111,-1.108,-3.359,1.786,-1.527,1973757
0.098,0.109,-1.117,-3.985,0.702,-1.435,1977767
0.108,0.112,-1.121,-4.305,0.000,-1.252,1981778
0.108,0.108,-1.126,-4.779,-1.084,-1.328,1985789
0.112,0.112,-1.133,-5.450,-2.076,-1.267,1989800
0.102,0.115,-1.127,-5.634,-2.626,-1.267,1993811
0.096,0.117,-1.118,-5.863,-2.565,-1.160,1997821
0.098,0.117,-1.116,-5.954,-2.229,-1.206,2001832
