acc_x,acc_y,acc_z,gyro_x,gyro_y,gyro_z,time
0.301,-0.155,-1.102,-0.595,0.305,-0.748,0
0.303,-0.156,-1.110,-0.565,0.260,-0.656,4050
0.298,-0.160,-1.120,-0.763,0.153,-0.672,8063
0.308,-0.161,-1.111,-1.023,0.351,-0.885,12074
0.310,-0.169,-1.123,-1.313,0.031,-0.992,16085
0.310,-0.168,-1.102,-1.710,-0.168,-1.130,20097
0.307,-0.160,-1.112,-2.183,-0.305,-1.389,24108
0.308,-0.162,-1.112,-2.611,-0.244,-1.557,28118
0.304,-0.164,-1.116,-2.809,-0.351,-1.710,32129
0.294,-0.155,-1.112,-2.809,-0.595,-2.015,36140
0.302,-0.153,-1.117,-2.901,-0.473,-2.076,40151
0.303,-0.147,-1.117,-2.641,-0.351,-2.198,44162
0.302,-0.146,-1.109,-2.092,-0.336,-2.183,48170
0.299,-0.146,-1.111,-1.649,-0.611,-2.260,52181
0.298,-0.151,-1.117,-1.450,-0.366,-2.076,56192
0.295,-0.151,-1.125,-1.069,-0.412,-2.000,60204
0.300,-0.150,-1.119,-0.855,-0.397,-2.198,64215
0.300,-0.156,-1.122,-0.672,-0.351,-1.939,68226
0.298,-0.159,-1.121,-0.656,-0.061,-1.924,72238
0.299,-0.165,-1.125,-0.412,-0.046,-2.214,76249
0.299,-0.161,-1.121,-0.519,0.229,-2.061,80260
0.298,-0.165,-1.125,-0.519,0.153,-2.046,84272
0.299,-0.165,-1.117,-0.748,0.366,-2.153,88283
0.295,-0.167,-1.120,-1.008,0.748,-2.000,92294
0.302,-0.168,-1.131,-1.237,0.687,-1.679,96305
0.297,-0.169,-1.132,-1.420,0.733,-1.756,100316
0.297,-0.170,-1.135,-1.573,0.779,-1.664,104327
0.302,-0.165,-1.119,-1.710,0.656,-1.634,108339
0.308,-0.175,-1.131,-2.183,0.366,-1.786,112350
0.309,-0.172,-1.127,-2.336,0.244,-1.908,116361
0.309,-0.177,-1.122,-2.580,-0.061,-1.863,120372
0.305,-0.169,-1.139,-2.885,-0.382,-1.985,124383
0.312,-0.168,-1.122,-3.145,-0.382,-2.275,128394
0.310,-0.169,-1.119,-3.069,-0.641,-2.427,132405
0.295,-0.171,-1.119,-3.130,-0.656,-2.412,136416
0.295,-0.168,-1.123,-3.191,-0.321,-2.427,140428
0.296,-0.167,-1.125,-3.038,0.076,-2.366,144439
0.295,-0.170,-1.122,-3.099,0.290,-2.443,148449
0.295,-0.170,-1.118,-2.870,0.473,-2.137,152460
0.301,-0.172,-1.124,-2.748,0.916,-2.244,156471
0.301,-0.177,-1.120,-2.824,1.221,-2.382,160482
0.295,-0.166,-1.117,-2.733,1.221,-2.351,164493
0.302,-0.168,-1.127,-2.901,1.298,-2.382,168503
0.301,-0.171,-1.122,-2.702,1.328,-2.229,172514
0.298,-0.168,-1.128,-2.779,1.374,-2.137,176525
0.302,-0.166,-1.123,-2.672,1.267,-2.214,180536
0.300,-0.162,-1.121,-2.443,1.053,-2.351,184547
0.303,-0.167,-1.126,-2.427,1.206,-2.229,188557
0.300,-0.162,-1.127,-2.366,1.237,-2.107,192568
0.295,-0.164,-1.118,-2.260,1.191,-2.137,196580
0.296,-0.159,-1.125,-2.214,1.252,-2.290,200591
0.299,-0.167,-1.125,-2.229,1.450,-2.321,204602
0.291,-0.162,-1.123,-2.305,1.435,-2.397,208614
0.294,-0.167,-1.117,-2.534,1.634,-2.382,212625
0.287,-0.165,-1.115,-2.885,1.695,-2.519,216636
0.294,-0.172,-1.123,-3.160,1.786,-2.519,220647
0.289,-0.168,-1.123,-3.527,2.000,-2.595,224658
0.294,-0.165,-1.122,-3.359,1.954,-2.702,228670
0.296,-0.165,-1.129,-3.511,2.015,-2.672,232689
0.291,-0.158,-1.129,-3.618,2.000,-2.611,236700
0.284,-0.163,-1.123,-3.786,1.817,-2.473,240711
0.286,-0.157,-1.117,-3.771,1.679,-2.458,244722
0.290,-0.158,-1.128,-3.832,1.344,-2.229,248734
0.291,-0.159,-1.114,-3.756,1.359,-2.122,252746
0.292,-0.167,-1.119,-3.466,1.267,-2.061,256757
0.295,-0.158,-1.115,-3.573,0.794,-1.893,260768
0.296,-0.154,-1.112,-3.511,0.534,-1.695,264779
0.297,-0.153,-1.116,-3.557,0.336,-1.679,268792
0.303,-0.159,-1.116,-3.389,-0.031,-1.847,272803
0.298,-0.161,-1.121,-3.405,-0.214,-1.985,276814
0.295,-0.162,-1.117,-3.282,-0.244,-1.893,280825
0.295,-0.162,-1.116,-3.099,-0.260,-1.893,284836
0.295,-0.158,-1.116,-3.298,-0.153,-1.924,288847
0.292,-0.159,-1.116,-3.130,-0.229,-1.725,292857
0.290,-0.162,-1.120,-3.206,0.122,-1.679,296869
0.294,-0.159,-1.121,-2.977,0.153,-1.664,300879
0.293,-0.149,-1.116,-3.053,0.351,-1.725,304890
0.297,-0.161,-1.118,-2.809,0.595,-1.740,308902
0.295,-0.153,-1.115,-2.550,0.794,-1.634,312915
0.299,-0.156,-1.121,-2.366,0.779,-1.649,316927
0.297,-0.157,-1.115,-2.366,0.840,-1.603,320938
0.297,-0.161,-1.123,-2.092,0.718,-1.588,324950
0.297,-0.160,-1.116,-2.275,0.977,-1.618,328961
0.297,-0.163,-1.125,-2.244,0.962,-1.603,332980
0.293,-0.165,-1.124,-2.366,0.962,-1.496,336991
0.297,-0.168,-1.120,-2.214,0.916,-1.527,341002
0.303,-0.165,-1.131,-2.321,0.870,-1.527,345013
0.302,-0.171,-1.131,-2.656,0.763,-1.603,349024
0.307,-0.167,-1.125,-2.809,0.656,-1.496,353045
0.298,-0.168,-1.128,-3.069,0.611,-1.435,357056
0.301,-0.169,-1.126,-3.237,0.489,-1.695,361067
0.304,-0.163,-1.124,-3.359,0.412,-1.557,365078
0.302,-0.167,-1.133,-3.527,0.336,-1.863,369089
0.305,-0.165,-1.124,-3.832,0.351,-1.985,373102
0.302,-0.162,-1.131,-3.954,0.321,-2.031,377114
0.302,-0.159,-1.127,-4.061,0.321,-2.061,381124
0.302,-0.159,-1.123,-3.939,0.412,-2.290,385135
0.305,-0.161,-1.123,-4.061,0.504,-2.443,389146
0.300,-0.160,-1.126,-3.878,0.504,-2.397,393159
0.305,-0.151,-1.126,-3.603,0.565,-2.336,397170
0.303,-0.159,-1.119,-3.802,0.504,-2.214,401181
0.302,-0.153,-1.114,-3.542,0.534,-2.198,405192
0.299,-0.159,-1.118,-3.435,0.550,-2.168,409203
0.301,-0.155,-1.124,-3.481,0.534,-2.336,413224
0.293,-0.155,-1.121,-3.405,0.718,-2.000,417235
0.299,-0.153,-1.125,-3.344,0.733,-2.061,421247
0.297,-0.146,-1.128,-3.206,0.885,-1.847,425258
0.297,-0.148,-1.126,-3.252,1.130,-1.878,429269
0.297,-0.144,-1.125,-3.115,1.130,-1.710,433290
0.289,-0.143,-1.114,-2.885,1.267,-2.000,437302
0.292,-0.140,-1.122,-2.962,1.542,-1.954,441313
0.293,-0.140,-1.118,-2.977,1.649,-2.107,445324
0.297,-0.138,-1.124,-3.053,1.588,-2.321,449336
0.293,-0.140,-1.123,-3.359,1.695,-2.321,453347
0.296,-0.137,-1.120,-3.466,1.664,-2.626,457358
0.291,-0.128,-1.126,-3.588,1.756,-2.489,461369
0.293,-0.131,-1.118,-3.878,1.832,-2.427,465380
0.286,-0.119,-1.115,-4.183,1.374,-2.275,469391
0.293,-0.102,-1.123,-3.863,1.267,-1.939,473402
0.291,-0.098,-1.114,-3.573,1.588,-2.076,477414
0.296,-0.083,-1.123,-3.084,1.511,-2.183,481424
0.292,-0.072,-1.128,-2.595,1.710,-1.985,485435
0.289,-0.060,-1.129,-2.198,1.603,-1.725,489446
0.290,-0.043,-1.140,-1.450,1.893,-1.557,493458
0.298,-0.029,-1.129,-0.656,2.061,-1.557,497468
0.309,-0.020,-1.147,0.061,2.015,-1.389,501479
0.311,-0.004,-1.148,0.992,2.305,-1.405,505490
0.315,0.017,-1.154,1.710,2.260,-1.771,509501
0.320,0.041,-1.171,2.748,2.275,-1.863,513511
0.327,0.059,-1.171,3.771,2.366,-2.076,517522
0.337,0.084,-1.182,4.916,2.443,-2.534,521533
0.343,0.106,-1.190,5.924,2.305,-2.718,525544
0.363,0.128,-1.201,6.870,2.260,-3.466,529555
0.373,0.144,-1.219,7.847,1.908,-4.336,533566
0.385,0.164,-1.226,8.489,1.817,-4.885,537577
0.398,0.179,-1.233,8.870,1.603,-5.573,541588
0.421,0.194,-1.239,9.252,1.160,-6.305,545599
0.436,0.209,-1.253,8.794,0.412,-7.160,549610
0.455,0.225,-1.253,8.107,-0.412,-8.321,553630
0.464,0.228,-1.261,6.763,-1.191,-9.740,557641
0.474,0.248,-1.274,5.053,-2.214,-11.542,561652
0.478,0.262,-1.265,2.565,-3.130,-13.176,565663
0.480,0.270,-1.262,-0.137,-4.534,-15.344,569674
0.476,0.270,-1.261,-3.206,-5.725,-17.786,573694
0.471,0.282,-1.248,-6.244,-6.809,-20.031,577705
0.466,0.293,-1.249,-9.313,-7.802,-22.260,581716
0.451,0.303,-1.249,-12.351,-8.855,-24.321,585727
0.444,0.321,-1.228,-15.237,-9.725,-26.366,589738
0.426,0.332,-1.214,-17.527,-10.382,-28.168,593750
0.403,0.345,-1.208,-19.344,-10.809,-30.153,597760
0.382,0.369,-1.201,-21.053,-11.145,-31.756,601772
0.355,0.378,-1.194,-22.107,-11.084,-33.115,605782
0.336,0.407,-1.181,-22.595,-10.534,-34.244,609793
0.302,0.423,-1.178,-22.656,-9.863,-35.115,613805
0.274,0.448,-1.168,-21.878,-8.504,-35.649,617816
0.249,0.470,-1.160,-20.626,-6.748,-35.969,621827
0.212,0.505,-1.146,-19.008,-4.565,-36.153,625839
0.179,0.531,-1.142,-16.962,-2.076,-35.573,629850
0.157,0.542,-1.133,-14.855,0.992,-34.748,633870
0.141,0.564,-1.150,-11.145,4.214,-33.817,637881
0.130,0.585,-1.155,-7.023,8.046,-32.595,641893
0.123,0.593,-1.149,-2.885,12.122,-31.298,645904
0.117,0.598,-1.147,0.733,16.229,-30.229,649918
0.099,0.583,-1.146,3.878,20.473,-29.206,653929
0.089,0.570,-1.143,6.290,25.023,-27.924,657940
0.094,0.559,-1.144,7.954,28.931,-27.115,661951
0.097,0.542,-1.142,9.206,34.489,-26.275,665962
0.116,0.524,-1.151,9.008,38.153,-25.298,669973
0.128,0.512,-1.156,7.985,40.901,-25.267,673984
0.156,0.511,-1.167,6.336,43.603,-25.664,677996
0.188,0.496,-1.175,3.939,45.008,-26.504,682007
0.217,0.455,-1.181,0.366,45.160,-28.168,686018
0.245,0.426,-1.192,-4.550,44.061,-30.382,690029
0.266,0.391,-1.185,-9.649,42.031,-33.252,694040
0.292,0.367,-1.189,-15.557,39.160,-36.321,698051
0.319,0.348,-1.206,-21.847,35.023,-39.969,702062
0.330,0.328,-1.197,-27.878,30.641,-43.649,706073
0.348,0.313,-1.205,-33.435,26.015,-47.221,710085
0.349,0.290,-1.200,-38.855,21.145,-50.733,714096
0.349,0.285,-1.197,-43.771,16.489,-53.420,718107
0.342,0.265,-1.180,-47.649,12.565,-55.756,722119
0.322,0.259,-1.198,-50.412,9.450,-57.893,726129
0.315,0.248,-1.194,-52.489,6.992,-59.084,730140
0.299,0.234,-1.193,-53.176,5.267,-59.557,734151
0.295,0.220,-1.190,-52.626,4.748,-59.221,738158
0.298,0.186,-1.193,-51.145,4.366,-58.992,742169
0.299,0.155,-1.191,-49.924,3.740,-57.771,746180
0.305,0.118,-1.201,-48.534,3.542,-55.679,750191
0.317,0.094,-1.187,-46.672,3.389,-52.916,754202
0.317,0.082,-1.192,-43.389,4.244,-49.893,758214
0.333,0.075,-1.186,-39.344,5.176,-47.099,762225
0.354,0.061,-1.183,-35.313,5.588,-45.023,766237
0.373,0.043,-1.193,-31.053,5.069,-43.649,770248
0.393,0.016,-1.193,-27.008,3.756,-41.969,774259
0.405,-0.019,-1.190,-24.061,1.786,-40.504,778271
0.432,-0.063,-1.189,-21.863,-1.542,-38.626,782282
0.455,-0.099,-1.181,-20.229,-5.115,-36.977,786293
0.469,-0.119,-1.170,-19.008,-9.115,-35.252,790304
0.478,-0.142,-1.178,-17.802,-13.084,-33.756,794315
0.488,-0.175,-1.177,-16.427,-17.298,-32.901,798327
0.486,-0.215,-1.174,-15.863,-21.221,-31.710,802337
0.472,-0.245,-1.157,-15.176,-26.275,-29.389,806348
0.466,-0.271,-1.161,-14.031,-30.229,-26.870,810359
0.473,-0.290,-1.157,-12.702,-33.618,-24.489,814370
0.468,-0.294,-1.163,-10.947,-36.794,-22.626,818381
0.452,-0.297,-1.165,-8.687,-39.359,-20.855,822392
0.426,-0.302,-1.161,-6.031,-41.435,-19.389,826403
0.411,-0.307,-1.161,-2.687,-43.008,-17.893,830414
0.390,-0.326,-1.169,0.458,-43.893,-16.382,834425
0.354,-0.340,-1.160,3.908,-44.031,-14.031,838435
0.333,-0.357,-1.143,7.328,-43.481,-10.947,842446
0.312,-0.381,-1.143,10.427,-42.076,-7.038,846457
0.292,-0.403,-1.125,12.794,-39.618,-2.290,850468
0.268,-0.438,-1.111,14.489,-37.053,2.855,854479
0.243,-0.485,-1.084,15.618,-33.496,8.443,858490
0.243,-0.528,-1.057,16.153,-29.664,14.412,862501
0.220,-0.574,-1.034,16.336,-25.618,21.099,866512
0.214,-0.613,-1.010,15.969,-21.328,28.061,870523
0.222,-0.638,-0.981,14.809,-16.718,35.450,874534
0.225,-0.662,-0.952,13.649,-11.771,42.183,878546
0.242,-0.697,-0.930,11.664,-6.916,48.931,882556
0.251,-0.733,-0.930,9.435,-2.137,54.626,886567
0.261,-0.752,-0.919,7.802,2.519,60.290,890578
0.280,-0.763,-0.909,7.069,7.221,65.542,894589
0.334,-0.771,-0.920,7.191,7.863,69.237,898600
0.277,-0.763,-0.846,9.374,18.672,73.649,902611
0.164,-0.739,-0.877,13.481,29.786,83.542,906622
0.185,-0.720,-0.932,16.107,34.198,88.931,910633
0.343,-0.737,-0.922,14.870,35.359,83.481,914644
0.443,-0.785,-0.981,14.366,38.031,74.321,918655
0.512,-0.810,-1.003,14.794,38.061,68.672,922675
0.541,-0.800,-0.995,15.878,37.817,65.313,926686
0.539,-0.766,-1.019,15.145,36.580,63.679,930697
0.532,-0.736,-1.027,14.092,35.557,62.885,934708
0.538,-0.730,-1.037,13.206,35.756,60.794,938720
0.535,-0.738,-0.997,14.275,33.832,60.550,942730
0.544,-0.735,-0.973,15.573,30.489,62.687,946741
0.539,-0.743,-0.952,15.969,28.244,66.137,950752
0.537,-0.734,-0.972,15.099,25.817,69.496,954763
0.534,-0.719,-0.989,12.412,25.252,71.771,958776
0.543,-0.700,-0.991,8.870,24.443,71.359,962787
0.511,-0.689,-0.995,6.214,24.076,70.107,966799
0.489,-0.676,-0.999,3.924,23.618,68.366,970810
0.484,-0.658,-1.001,2.595,22.412,65.389,974821
0.505,-0.634,-1.004,1.420,19.939,61.191,978832
0.515,-0.601,-1.002,0.473,17.573,56.504,982843
0.530,-0.559,-0.993,-0.076,15.298,52.412,986854
0.537,-0.518,-0.994,0.275,12.687,49.008,990865
0.533,-0.489,-1.001,1.008,9.725,44.962,994876
0.530,-0.468,-1.010,2.260,6.489,40.290,998888
0.507,-0.452,-1.002,3.679,3.374,35.130,1002900
0.487,-0.422,-1.020,4.992,0.427,30.382,1006911
0.467,-0.411,-1.012,6.168,-2.550,25.542,1010922
0.448,-0.405,-1.018,7.344,-5.420,21.450,1014933
0.435,-0.396,-1.010,8.198,-7.802,18.611,1018944
0.422,-0.380,-1.023,8.977,-9.679,15.939,1022964
0.414,-0.368,-1.043,9.695,-11.618,13.817,1026976
0.400,-0.355,-1.054,9.878,-13.649,11.649,1030987
0.371,-0.344,-1.047,9.802,-14.947,10.382,1034998
0.323,-0.343,-1.055,9.924,-15.664,9.939,1039009
0.277,-0.336,-1.073,9.328,-16.229,10.656,1043029
0.254,-0.347,-1.073,8.427,-17.038,10.763,1047041
0.234,-0.339,-1.076,7.603,-17.252,10.672,1051051
0.213,-0.332,-1.084,6.809,-17.053,11.099,1055062
0.197,-0.326,-1.088,6.244,-15.817,12.382,1059073
0.180,-0.315,-1.095,5.527,-15.023,13.832,1063091
0.188,-0.302,-1.105,4.870,-14.855,14.046,1067102
0.190,-0.292,-1.122,4.519,-15.237,13.573,1071113
0.201,-0.273,-1.120,4.397,-14.885,13.328,1075124
0.193,-0.265,-1.134,4.534,-14.427,14.031,1079135
0.191,-0.257,-1.141,4.031,-13.939,15.237,1083145
0.181,-0.258,-1.142,3.008,-13.023,15.649,1087157
0.172,-0.259,-1.152,2.382,-11.542,15.832,1091167
0.167,-0.255,-1.157,1.802,-10.061,16.183,1095178
0.164,-0.251,-1.161,1.557,-8.443,16.321,1099190
0.173,-0.251,-1.161,1.466,-6.748,16.672,1103210
0.169,-0.242,-1.161,0.977,-4.458,16.763,1107221
0.173,-0.250,-1.158,0.214,-2.107,17.084,1111232
0.189,-0.255,-1.152,-1.053,-0.198,17.145,1115243
0.192,-0.271,-1.157,-2.443,1.679,16.321,1119254
0.217,-0.266,-1.154,-3.573,3.359,14.885,1123275
0.232,-0.248,-1.155,-4.473,4.611,13.099,1127286
0.251,-0.238,-1.158,-5.405,5.420,11.313,1131297
0.273,-0.222,-1.148,-5.985,5.756,9.450,1135309
0.283,-0.216,-1.155,-6.397,5.863,8.229,1139320
0.288,-0.210,-1.146,-6.443,5.450,7.450,1143338
0.297,-0.202,-1.141,-6.244,4.718,7.344,1147348
0.304,-0.196,-1.140,-6.061,3.573,7.511,1151359
0.311,-0.194,-1.139,-5.832,2.107,7.893,1155370
0.322,-0.191,-1.126,-5.481,0.702,8.168,1159381
0.321,-0.196,-1.134,-5.435,-0.794,7.832,1163392
0.319,-0.190,-1.135,-5.374,-2.718,7.069,1167403
0.315,-0.184,-1.145,-5.282,-4.275,6.275,1171414
0.312,-0.170,-1.142,-5.145,-6.260,5.389,1175425
0.315,-0.168,-1.148,-4.611,-7.634,4.321,1179436
0.313,-0.166,-1.157,-4.198,-9.038,3.496,1183447
0.306,-0.170,-1.162,-4.168,-9.939,3.206,1187459
0.296,-0.178,-1.164,-3.756,-11.191,3.405,1191469
0.291,-0.187,-1.152,-3.939,-11.740,4.137,1195481
0.280,-0.188,-1.162,-4.031,-12.458,4.947,1199492
0.273,-0.184,-1.160,-4.000,-13.252,5.725,1203502
0.278,-0.180,-1.153,-3.740,-13.649,6.397,1207513
0.271,-0.166,-1.148,-3.466,-13.863,6.901,1211524
0.273,-0.173,-1.145,-3.359,-13.908,7.130,1215535
0.269,-0.184,-1.157,-3.374,-13.771,6.947,1219546
0.277,-0.191,-1.156,-3.450,-13.130,6.382,1223557
0.282,-0.198,-1.158,-3.939,-12.672,5.618,1227569
0.284,-0.198,-1.160,-4.412,-12.107,4.947,1231580
0.287,-0.204,-1.153,-5.023,-11.573,4.229,1235592
0.291,-0.201,-1.145,-5.695,-11.023,3.740,1239603
0.281,-0.195,-1.138,-6.183,-9.908,3.435,1243623
0.287,-0.186,-1.131,-6.473,-8.748,2.931,1247634
0.288,-0.188,-1.135,-6.962,-7.985,2.504,1251645
0.289,-0.185,-1.133,-7.038,-6.824,1.649,1255656
0.277,-0.169,-1.130,-7.237,-5.450,0.992,1259667
0.267,-0.168,-1.120,-6.885,-4.641,0.656,1263688
0.270,-0.162,-1.124,-6.656,-4.137,0.168,1267699
0.281,-0.166,-1.130,-6.214,-4.046,0.061,1271711
0.285,-0.166,-1.126,-6.031,-4.015,0.458,1275722
0.281,-0.165,-1.114,-5.771,-3.847,1.145,1279733
0.286,-0.164,-1.126,-5.542,-4.290,1.924,1283745
0.293,-0.173,-1.116,-5.588,-5.008,2.321,1287755
0.290,-0.174,-1.125,-5.527,-5.664,2.626,1291766
0.302,-0.176,-1.112,-5.573,-6.977,2.840,1295777
0.295,-0.167,-1.110,-5.435,-7.603,3.038,1299788
0.293,-0.161,-1.124,-5.206,-8.168,3.221,1303801
0.297,-0.156,-1.123,-4.885,-8.489,3.008,1307812
0.297,-0.146,-1.118,-4.397,-8.550,3.084,1311822
0.290,-0.151,-1.121,-3.847,-8.351,2.794,1315833
0.294,-0.151,-1.133,-3.435,-7.802,2.672,1319844
0.283,-0.161,-1.128,-3.099,-7.298,1.954,1323865
0.282,-0.161,-1.129,-2.992,-6.580,1.511,1327876
0.279,-0.161,-1.125,-2.687,-5.542,1.069,1331888
0.289,-0.163,-1.135,-2.962,-5.038,0.473,1335898
0.285,-0.163,-1.134,-3.099,-4.229,-0.244,1339918
0.284,-0.172,-1.128,-3.481,-3.405,-1.008,1343929
0.275,-0.182,-1.139,-4.137,-2.733,-1.328,1347940
0.263,-0.178,-1.140,-4.885,-2.137,-1.145,1351951
0.261,-0.177,-1.143,-5.344,-1.405,-1.344,1355962
0.256,-0.173,-1.141,-5.710,-0.885,-1.160,1359973
0.254,-0.171,-1.133,-5.847,-0.107,-1.084,1363984
0.257,-0.163,-1.128,-5.725,0.580,-0.779,1367996
0.257,-0.171,-1.135,-5.710,0.870,-0.580,1372007
0.249,-0.163,-1.129,-5.374,1.588,-0.580,1376018
0.251,-0.159,-1.123,-5.252,2.534,-0.061,1380029
0.248,-0.163,-1.118,-5.023,2.916,-0.046,1384040
0.250,-0.168,-1.116,-4.748,3.206,0.046,1388051
0.247,-0.166,-1.118,-4.321,3.679,0.198,1392062
0.260,-0.169,-1.112,-4.107,4.076,0.550,1396073
0.261,-0.158,-1.125,-3.649,4.107,0.855,1400085
0.269,-0.151,-1.111,-3.206,4.168,1.221,1404096
0.267,-0.149,-1.114,-2.947,3.725,1.679,1408107
0.266,-0.152,-1.110,-2.595,2.641,1.786,1412119
0.281,-0.163,-1.114,-2.489,1.542,1.786,1416129
0.278,-0.160,-1.116,-2.183,0.122,1.756,1420140
0.281,-0.155,-1.116,-1.740,-0.947,1.985,1424151
0.284,-0.149,-1.113,-1.389,-2.351,2.092,1428158
0.279,-0.156,-1.123,-1.145,-3.618,2.015,1432169
0.277,-0.151,-1.124,-0.763,-4.962,1.802,1436180
0.278,-0.152,-1.127,-0.565,-5.939,1.481,1440191
0.278,-0.159,-1.130,-0.565,-6.992,1.237,1444202
0.269,-0.161,-1.136,-0.351,-7.634,1.038,1448214
0.266,-0.163,-1.140,-0.656,-8.214,0.718,1452225
0.267,-0.162,-1.147,-0.931,-8.427,0.580,1456237
0.260,-0.160,-1.144,-1.374,-8.458,0.626,1460248
0.238,-0.154,-1.138,-1.573,-7.969,0.351,1464259
0.233,-0.148,-1.137,-1.893,-7.298,0.504,1468271
0.238,-0.154,-1.139,-2.076,-6.824,0.504,1472282
0.243,-0.163,-1.154,-2.153,-6.122,0.702,1476293
0.250,-0.159,-1.146,-2.031,-5.756,0.870,1480304
0.259,-0.158,-1.149,-2.107,-5.298,1.008,1484315
0.264,-0.156,-1.143,-2.122,-5.328,1.023,1488327
0.259,-0.153,-1.143,-2.183,-5.267,1.099,1492337
0.261,-0.153,-1.153,-2.061,-5.344,1.344,1496348
0.263,-0.154,-1.146,-2.076,-5.603,1.313,1500359
0.265,-0.157,-1.148,-1.710,-5.679,1.298,1504370
0.264,-0.155,-1.138,-1.588,-6.031,1.527,1508381
0.264,-0.156,-1.142,-1.435,-6.260,1.756,1512392
0.273,-0.165,-1.144,-1.374,-6.244,1.939,1516403
0.275,-0.168,-1.144,-1.771,-6.336,1.924,1520414
0.268,-0.176,-1.138,-2.000,-6.260,2.046,1524425
0.259,-0.182,-1.139,-2.397,-6.183,1.771,1528435
0.262,-0.181,-1.138,-2.824,-6.015,1.511,1532446
0.267,-0.182,-1.136,-3.145,-5.847,1.221,1536457
0.261,-0.181,-1.132,-3.573,-5.588,0.580,1540468
0.269,-0.178,-1.124,-3.802,-5.435,0.031,1544479
0.269,-0.173,-1.129,-4.198,-5.191,-0.458,1548490
0.281,-0.169,-1.133,-3.985,-5.557,-1.328,1552501
0.286,-0.169,-1.131,-4.244,-6.153,-2.061,1556512
0.291,-0.168,-1.127,-4.198,-6.870,-2.870,1560523
0.294,-0.158,-1.123,-4.183,-8.046,-3.267,1564534
0.293,-0.166,-1.122,-4.000,-8.794,-3.664,1568546
0.281,-0.174,-1.119,-3.817,-9.939,-3.924,1572556
0.292,-0.170,-1.129,-3.588,-11.023,-3.954,1576567
0.283,-0.170,-1.130,-3.481,-11.863,-4.198,1580578
0.283,-0.175,-1.121,-3.405,-12.718,-4.397,1584589
0.274,-0.174,-1.117,-3.374,-13.557,-4.427,1588600
0.275,-0.170,-1.126,-3.237,-14.122,-4.901,1592611
0.275,-0.165,-1.122,-2.977,-14.366,-5.328,1596622
0.271,-0.156,-1.125,-2.870,-14.565,-5.649,1600633
0.255,-0.158,-1.124,-2.733,-14.321,-5.863,1604644
0.244,-0.158,-1.118,-2.580,-13.893,-5.985,1608655
0.232,-0.159,-1.118,-2.397,-13.191,-5.954,1612675
0.224,-0.163,-1.115,-2.305,-12.611,-5.985,1616686
0.215,-0.168,-1.122,-2.183,-11.542,-5.634,1620697
0.210,-0.171,-1.121,-2.366,-10.611,-5.344,1624708
0.201,-0.169,-1.123,-2.321,-9.557,-4.672,1628720
0.202,-0.175,-1.115,-2.244,-8.290,-3.786,1632730
0.191,-0.172,-1.122,-2.351,-6.718,-2.672,1636741
0.186,-0.177,-1.122,-2.519,-5.649,-1.786,1640752
0.179,-0.177,-1.120,-2.672,-3.359,-1.038,1644763
0.172,-0.175,-1.126,-2.321,-1.069,0.076,1648776
0.162,-0.174,-1.123,-2.214,1.511,0.977,1652787
0.174,-0.165,-1.128,-1.863,3.725,0.916,1656799
0.190,-0.167,-1.123,-1.847,5.557,0.763,1660810
0.215,-0.163,-1.125,-1.603,6.870,0.565,1664821
0.227,-0.167,-1.127,-1.603,8.168,0.443,1668832
0.242,-0.168,-1.121,-1.588,8.519,0.534,1672843
0.256,-0.162,-1.127,-1.557,8.733,0.840,1676854
0.268,-0.157,-1.131,-1.649,8.031,1.008,1680865
0.275,-0.158,-1.136,-1.496,7.542,1.420,1684876
0.283,-0.161,-1.122,-1.496,6.458,1.893,1688888
0.286,-0.151,-1.132,-1.221,5.237,1.466,1692900
0.293,-0.154,-1.132,-1.084,3.618,1.298,1696911
0.295,-0.150,-1.129,-0.748,1.939,0.656,1700922
0.298,-0.159,-1.130,-0.641,0.351,0.275,1704933
0.292,-0.156,-1.137,-0.458,-1.221,0.122,1708944
0.297,-0.161,-1.130,-0.260,-2.595,0.092,1712964
0.292,-0.160,-1.136,-0.412,-3.679,0.000,1716976
0.291,-0.162,-1.134,-0.504,-4.336,-0.198,1720987
0.288,-0.163,-1.137,-0.779,-4.626,-0.427,1724998
0.280,-0.162,-1.136,-0.809,-4.427,-0.672,1729009
0.271,-0.168,-1.148,-1.130,-4.198,-1.023,1733029
0.263,-0.170,-1.144,-1.588,-3.954,-1.405,1737041
0.274,-0.182,-1.137,-2.260,-3.527,-1.878,1741051
0.264,-0.173,-1.139,-2.763,-3.084,-2.000,1745062
0.258,-0.168,-1.141,-3.176,-2.565,-2.427,1749073
0.253,-0.158,-1.149,-3.695,-2.366,-2.656,1753091
0.252,-0.159,-1.152,-3.985,-2.137,-2.763,1757102
0.242,-0.154,-1.155,-4.122,-1.863,-2.489,1761113
0.241,-0.155,-1.149,-3.969,-1.710,-2.321,1765124
0.243,-0.164,-1.157,-4.137,-1.603,-1.924,1769135
0.239,-0.159,-1.141,-4.198,-1.405,-1.481,1773145
0.239,-0.162,-1.154,-3.969,-1.328,-1.328,1777157
0.232,-0.152,-1.151,-3.863,-1.221,-0.931,1781167
0.240,-0.159,-1.152,-3.603,-0.947,-0.702,1785178
0.233,-0.151,-1.149,-3.374,-0.718,-0.427,1789190
0.240,-0.157,-1.147,-3.130,-0.321,-0.198,1793210
0.246,-0.157,-1.154,-3.053,-0.275,-0.382,1797221
0.242,-0.159,-1.154,-3.053,-0.198,-0.046,1801232
0.250,-0.162,-1.151,-2.962,0.015,0.366,1805243
0.251,-0.166,-1.143,-2.870,0.244,0.718,1809254
0.258,-0.171,-1.145,-3.099,0.427,1.237,1813275
0.263,-0.172,-1.133,-3.069,0.763,0.992,1817286
0.271,-0.158,-1.146,-3.267,0.519,0.992,1821297
0.260,-0.150,-1.145,-3.267,0.397,0.611,1825309
0.270,-0.151,-1.143,-2.885,0.137,0.321,1829320
0.271,-0.156,-1.139,-2.718,-0.122,-0.168,1833338
0.278,-0.157,-1.138,-2.840,-0.595,-0.412,1837348
0.276,-0.167,-1.145,-2.947,-0.458,-0.748,1841359
0.273,-0.169,-1.146,-3.252,-0.733,-0.901,1845370
0.277,-0.170,-1.139,-3.527,-0.840,-1.618,1849381
0.266,-0.168,-1.146,-4.000,-0.809,-1.985,1853392
0.261,-0.168,-1.136,-4.351,-0.870,-2.550,1857403
0.265,-0.168,-1.140,-4.519,-0.809,-2.733,1861414
0.253,-0.171,-1.145,-4.962,-0.489,-2.916,1865425
0.253,-0.166,-1.137,-5.344,-0.305,-2.763,1869436
0.245,-0.167,-1.137,-5.496,0.198,-2.855,1873447
0.255,-0.175,-1.133,-5.374,0.366,-2.687,1877459
0.253,-0.167,-1.135,-5.313,0.351,-2.595,1881469
0.260,-0.169,-1.125,-5.267,0.458,-2.458,1885481
0.260,-0.168,-1.125,-5.099,0.443,-2.351,1889492
0.249,-0.159,-1.128,-4.885,0.397,-2.412,1893502
0.262,-0.160,-1.123,-4.565,-0.122,-2.534,1897513
0.263,-0.156,-1.125,-4.260,-0.702,-2.519,1901524
0.271,-0.152,-1.124,-3.985,-1.298,-3.069,1905535
0.269,-0.150,-1.128,-3.664,-1.863,-3.405,1909546
0.266,-0.148,-1.119,-3.420,-2.305,-3.282,1913557
0.254,-0.148,-1.120,-3.145,-2.885,-3.374,1917569
0.255,-0.151,-1.122,-2.824,-3.450,-3.511,1921580
0.249,-0.151,-1.127,-2.458,-4.092,-3.710,1925592
0.244,-0.146,-1.126,-2.229,-4.366,-3.542,1929603
0.243,-0.148,-1.122,-1.969,-4.702,-3.893,1933623
0.239,-0.161,-1.115,-1.924,-4.870,-3.786,1937634
0.238,-0.156,-1.132,-1.893,-5.221,-3.786,1941645
0.239,-0.166,-1.135,-2.061,-5.405,-3.634,1945656
0.239,-0.160,-1.133,-2.275,-5.603,-3.771,1949667
0.236,-0.166,-1.123,-2.504,-5.725,-3.450,1953688
0.237,-0.169,-1.129,-2.626,-5.695,-3.374,1957699
0.236,-0.157,-1.127,-2.855,-5.695,-3.405,1961711
0.235,-0.163,-1.125,-3.145,-5.328,-3.176,1965722
0.230,-0.154,-1.132,-2.992,-4.916,-3.038,1969733
0.228,-0.159,-1.133,-3.130,-4.366,-3.282,1973745
0.229,-0.156,-1.135,-3.389,-3.939,-3.206,1977755
0.231,-0.160,-1.131,-3.435,-3.466,-3.359,1981766
0.227,-0.150,-1.133,-3.588,-2.718,-3.237,1985777
0.225,-0.160,-1.138,-3.985,-2.107,-3.191,1989788
0.225,-0.159,-1.131,-4.321,-1.542,-3.176,1993801
0.215,-0.161,-1.130,-4.336,-1.099,-3.053,1997812
0.220,-0.158,-1.139,-4.198,-0.412,-2.565,2001823
