acc_x,acc_y,acc_z,gyro_x,gyro_y,gyro_z,time
0.205,-0.218,-1.134,-1.573,2.107,0.122,0
0.206,-0.221,-1.130,-1.603,1.603,0.519,4047
0.205,-0.227,-1.135,-1.313,1.084,0.305,8060
0.207,-0.223,-1.134,-1.282,0.779,0.366,12072
0.205,-0.222,-1.137,-0.992,0.626,0.076,16082
0.202,-0.220,-1.142,-1.160,0.122,-0.244,20093
0.201,-0.226,-1.126,-1.313,0.031,-0.290,24104
0.203,-0.229,-1.138,-1.542,0.046,-0.687,28115
0.197,-0.231,-1.142,-1.771,0.046,-0.977,32126
0.203,-0.236,-1.133,-2.122,0.229,-1.252,36137
0.201,-0.232,-1.131,-2.565,0.656,-1.466,40148
0.202,-0.232,-1.136,-2.870,0.687,-1.771,44159
0.198,-0.235,-1.149,-3.420,1.130,-1.893,48171
0.194,-0.232,-1.128,-3.893,1.405,-2.290,52181
0.192,-0.227,-1.136,-4.076,1.863,-2.580,56192
0.197,-0.229,-1.135,-4.290,2.366,-3.053,60203
0.192,-0.226,-1.133,-4.168,2.824,-3.191,64214
0.194,-0.222,-1.133,-4.229,3.176,-3.389,68226
0.195,-0.223,-1.127,-4.168,3.359,-3.435,72237
0.196,-0.218,-1.136,-4.107,3.466,-3.450,76249
0.194,-0.215,-1.126,-3.756,3.664,-3.481,80259
0.200,-0.214,-1.133,-3.832,3.298,-3.282,84270
0.198,-0.209,-1.125,-3.511,3.176,-3.145,88282
0.192,-0.205,-1.118,-3.008,2.718,-3.084,92293
0.191,-0.211,-1.123,-2.351,2.519,-2.901,96305
0.188,-0.206,-1.124,-1.802,2.733,-2.626,100315
0.177,-0.207,-1.124,-1.099,2.595,-2.504,104326
0.183,-0.207,-1.121,-0.534,2.656,-2.382,108337
0.188,-0.213,-1.136,0.153,2.458,-2.153,112348
0.190,-0.219,-1.119,0.504,2.412,-1.817,116359
0.198,-0.218,-1.128,0.565,2.260,-1.710,120370
0.202,-0.220,-1.125,0.565,1.557,-1.405,124381
0.201,-0.223,-1.130,0.382,0.992,-1.328,128391
0.202,-0.223,-1.126,0.427,0.641,-1.130,132402
0.199,-0.223,-1.128,0.092,0.305,-0.947,136413
0.194,-0.220,-1.138,-0.031,-0.183,-1.069,140424
0.188,-0.223,-1.133,-0.214,-0.473,-1.298,144435
0.193,-0.222,-1.145,-0.458,-0.519,-1.450,148446
0.195,-0.223,-1.132,-0.855,-0.718,-1.588,152457
0.189,-0.217,-1.131,-1.176,-0.733,-1.802,156469
0.188,-0.223,-1.137,-1.603,-0.763,-1.908,160480
0.188,-0.231,-1.132,-2.107,-0.718,-1.893,164491
0.185,-0.226,-1.137,-2.427,-0.840,-1.771,168502
0.187,-0.225,-1.143,-2.779,-0.427,-1.771,172513
0.191,-0.224,-1.129,-2.916,-0.565,-1.893,176524
0.181,-0.216,-1.130,-3.038,-0.076,-1.893,180535
0.175,-0.221,-1.132,-3.069,0.107,-1.847,184546
0.181,-0.210,-1.133,-2.992,0.550,-1.664,188556
0.183,-0.212,-1.131,-2.595,0.779,-1.786,192567
0.184,-0.213,-1.134,-2.504,1.252,-1.664,196579
0.187,-0.219,-1.135,-2.366,1.252,-1.634,200590
0.191,-0.214,-1.130,-2.137,1.405,-1.756,204601
0.192,-0.218,-1.149,-2.000,1.450,-1.527,208613
0.195,-0.217,-1.127,-1.786,1.389,-1.267,212624
0.195,-0.216,-1.143,-1.603,1.237,-1.267,216635
0.196,-0.217,-1.131,-1.267,1.053,-1.130,220646
0.203,-0.216,-1.135,-0.580,0.733,-0.947,224657
0.197,-0.219,-1.135,-0.397,0.534,-0.702,228669
0.205,-0.224,-1.140,-0.168,0.153,-0.656,232688
0.207,-0.224,-1.136,-0.137,-0.473,-0.489,236699
0.213,-0.229,-1.135,-0.198,-0.962,-0.687,240710
0.203,-0.230,-1.140,-0.458,-1.420,-0.626,244721
0.202,-0.232,-1.139,-0.885,-1.802,-0.870,248733
0.203,-0.234,-1.140,-1.282,-2.092,-1.115,252745
0.203,-0.235,-1.144,-1.634,-2.214,-1.359,256756
0.202,-0.237,-1.144,-2.275,-2.305,-1.542,260767
0.197,-0.235,-1.140,-2.947,-2.214,-1.649,264778
0.197,-0.239,-1.144,-3.389,-2.183,-1.771,268791
0.197,-0.236,-1.139,-4.000,-2.260,-1.863,272802
0.195,-0.229,-1.142,-4.473,-1.863,-1.878,276813
0.197,-0.226,-1.137,-4.931,-1.435,-2.076,280824
0.189,-0.228,-1.144,-5.008,-1.099,-2.260,284835
0.189,-0.224,-1.141,-5.237,-0.809,-2.473,288846
0.191,-0.224,-1.135,-5.176,-0.473,-2.641,292856
0.182,-0.226,-1.139,-5.069,-0.031,-2.763,296868
0.194,-0.225,-1.139,-4.901,0.122,-2.733,300878
0.190,-0.227,-1.137,-4.916,0.046,-2.321,304889
0.195,-0.222,-1.137,-4.718,0.412,-2.168,308901
0.199,-0.223,-1.138,-4.534,0.321,-1.893,312914
0.188,-0.218,-1.134,-4.290,0.260,-1.649,316926
0.196,-0.222,-1.131,-3.817,0.198,-1.725,320937
0.188,-0.221,-1.130,-3.496,0.046,-1.466,324949
0.199,-0.221,-1.128,-3.130,-0.260,-1.221,328960
0.198,-0.220,-1.135,-2.947,-0.534,-1.176,332979
0.197,-0.224,-1.135,-2.656,-0.748,-0.870,336990
0.201,-0.223,-1.127,-2.611,-0.824,-0.733,341001
0.192,-0.229,-1.137,-2.687,-1.176,-0.702,345012
0.194,-0.226,-1.137,-2.916,-1.374,-0.779,349023
0.195,-0.228,-1.142,-3.130,-1.618,-0.702,353044
0.194,-0.232,-1.136,-3.313,-1.649,-0.718,357055
0.192,-0.235,-1.132,-3.634,-1.710,-0.916,361066
0.191,-0.233,-1.144,-4.015,-1.634,-0.916,365077
0.188,-0.226,-1.126,-4.198,-1.435,-1.191,369088
0.186,-0.232,-1.124,-4.595,-1.344,-1.481,373101
0.178,-0.228,-1.125,-4.656,-1.053,-1.527,377113
0.189,-0.234,-1.136,-4.992,-0.779,-1.695,381123
0.184,-0.227,-1.137,-5.221,-0.794,-1.908,385134
0.188,-0.219,-1.142,-5.450,-0.366,-1.985,389145
0.183,-0.224,-1.125,-5.420,-0.168,-1.878,393158
0.190,-0.224,-1.140,-5.618,0.107,-2.214,397169
0.186,-0.223,-1.135,-5.924,0.443,-2.107,401180
0.175,-0.220,-1.126,-5.863,0.733,-2.122,405191
0.186,-0.211,-1.122,-5.588,1.145,-2.122,409202
0.176,-0.215,-1.125,-5.542,1.328,-2.260,413223
0.179,-0.209,-1.125,-5.237,1.664,-1.969,417234
0.187,-0.205,-1.120,-5.023,1.695,-2.031,421246
0.185,-0.201,-1.131,-4.565,1.908,-1.725,425257
0.183,-0.202,-1.119,-4.122,2.015,-1.527,429268
0.188,-0.203,-1.131,-3.542,1.878,-1.344,433289
0.184,-0.208,-1.128,-3.252,1.817,-1.176,437301
0.186,-0.209,-1.129,-2.748,1.618,-1.115,441312
0.192,-0.206,-1.130,-2.626,0.947,-0.855,445323
0.194,-0.208,-1.125,-2.366,0.473,-0.718,449335
0.196,-0.207,-1.128,-2.229,0.122,-0.687,453346
0.191,-0.208,-1.125,-1.985,-0.397,-0.687,457357
0.189,-0.215,-1.124,-1.985,-0.672,-0.534,461368
0.186,-0.205,-1.129,-2.076,-1.069,-0.473,465379
0.188,-0.212,-1.127,-1.924,-1.130,-0.198,469390
0.188,-0.211,-1.129,-2.061,-1.435,-0.076,473401
0.191,-0.213,-1.134,-2.015,-1.221,-0.107,477413
0.181,-0.222,-1.122,-2.290,-1.496,-0.137,481423
0.189,-0.216,-1.132,-2.351,-1.221,-0.382,485434
0.189,-0.218,-1.131,-2.733,-0.992,-0.611,489445
0.187,-0.216,-1.135,-2.870,-0.977,-0.718,493457
0.191,-0.214,-1.145,-3.115,-0.855,-0.962,497467
0.185,-0.214,-1.139,-3.389,-0.611,-1.160,501478
0.190,-0.210,-1.138,-3.664,-0.397,-1.191,505489
0.188,-0.212,-1.140,-3.863,-0.183,-1.435,509500
0.189,-0.209,-1.146,-3.832,0.153,-1.252,513510
0.195,-0.198,-1.137,-3.878,0.305,-1.511,517521
0.194,-0.207,-1.137,-3.863,0.504,-1.588,521532
0.188,-0.201,-1.137,-3.664,0.397,-1.588,525543
0.198,-0.196,-1.146,-3.740,0.458,-1.496,529554
0.191,-0.195,-1.143,-3.481,0.183,-1.786,533565
0.202,-0.191,-1.146,-3.405,0.275,-1.802,537576
0.191,-0.191,-1.151,-3.389,0.076,-1.969,541587
0.191,-0.191,-1.146,-3.023,0.168,-1.725,545598
0.186,-0.186,-1.150,-2.855,0.122,-1.771,549609
0.187,-0.174,-1.154,-2.565,0.198,-1.664,553629
0.183,-0.176,-1.156,-2.137,0.229,-1.573,557640
0.185,-0.173,-1.159,-2.031,0.443,-1.603,561651
0.184,-0.163,-1.157,-1.664,0.672,-1.252,565662
0.186,-0.160,-1.173,-1.679,0.824,-1.313,569673
0.194,-0.144,-1.170,-1.313,0.824,-1.237,573693
0.185,-0.145,-1.174,-1.191,1.084,-1.359,577704
0.185,-0.137,-1.176,-1.145,1.328,-1.435,581715
0.186,-0.126,-1.186,-1.115,1.511,-1.359,585726
0.189,-0.127,-1.191,-1.023,1.603,-1.298,589737
0.186,-0.117,-1.195,-0.885,1.969,-1.191,593749
0.176,-0.106,-1.198,-0.977,2.137,-1.130,597759
0.178,-0.088,-1.204,-0.779,2.733,-1.145,601771
0.184,-0.075,-1.216,-0.336,3.573,-0.855,605781
0.175,-0.058,-1.218,0.351,4.733,-0.931,609792
0.175,-0.052,-1.232,1.160,5.908,-0.794,613804
0.178,-0.038,-1.233,2.046,6.992,-1.145,617815
0.180,-0.030,-1.244,2.809,8.122,-1.359,621826
0.186,-0.008,-1.259,3.588,9.099,-1.649,625838
0.202,0.008,-1.260,4.153,10.260,-2.244,629849
0.203,0.019,-1.279,4.534,11.237,-2.779,633869
0.202,0.046,-1.289,5.038,11.969,-3.588,637880
0.213,0.066,-1.296,5.435,12.687,-4.565,641892
0.220,0.073,-1.320,6.076,13.282,-5.588,645903
0.230,0.098,-1.325,6.534,14.015,-6.443,649917
0.228,0.116,-1.335,7.069,14.885,-7.511,653928
0.222,0.130,-1.339,7.664,16.168,-8.336,657939
0.237,0.135,-1.341,8.443,17.344,-9.130,661950
0.245,0.153,-1.355,9.206,18.321,-10.092,665961
0.253,0.174,-1.359,9.756,19.450,-10.962,669972
0.254,0.188,-1.362,9.924,20.244,-12.092,673983
0.253,0.195,-1.357,10.183,21.252,-13.359,677995
0.261,0.208,-1.352,10.519,22.504,-14.824,682006
0.260,0.227,-1.349,10.534,22.962,-16.351,686017
0.256,0.246,-1.341,10.809,23.832,-17.725,690028
0.245,0.260,-1.330,10.885,24.885,-19.420,694039
0.250,0.270,-1.322,10.687,25.588,-21.267,698050
0.253,0.284,-1.325,10.366,25.618,-23.511,702061
0.261,0.304,-1.296,9.893,25.115,-25.450,706072
0.266,0.304,-1.295,9.908,24.534,-27.008,710084
0.259,0.310,-1.298,10.412,23.878,-27.985,714095
0.274,0.307,-1.312,11.908,22.504,-28.351,718106
0.302,0.297,-1.325,13.115,20.748,-28.229,722118
0.333,0.279,-1.328,13.679,17.939,-28.122,726128
0.354,0.259,-1.336,13.908,13.786,-27.267,730139
0.380,0.247,-1.334,13.237,8.718,-26.809,734150
0.399,0.242,-1.350,12.351,2.870,-26.153,738157
0.409,0.250,-1.352,11.817,-3.344,-25.969,742168
0.409,0.262,-1.363,11.832,-9.679,-26.260,746179
0.405,0.257,-1.362,11.924,-15.466,-26.947,750190
0.411,0.264,-1.368,11.511,-21.420,-28.321,754201
0.403,0.258,-1.371,10.580,-25.817,-29.649,758213
0.380,0.255,-1.367,9.802,-29.511,-30.489,762224
0.354,0.255,-1.363,8.733,-32.046,-31.176,766236
0.333,0.252,-1.350,6.840,-33.786,-32.519,770247
0.307,0.255,-1.339,5.771,-34.412,-33.817,774258
0.301,0.269,-1.332,4.382,-35.863,-34.870,778270
0.202,0.236,-1.323,3.878,-30.580,-34.992,782281
0.213,0.257,-1.321,4.168,-24.962,-36.107,786292
0.193,0.242,-1.302,1.237,-22.534,-35.405,790303
0.181,0.214,-1.295,-1.008,-18.290,-34.244,794314
0.177,0.197,-1.281,-2.458,-13.176,-33.618,798326
0.167,0.183,-1.272,-4.305,-8.687,-32.779,802336
0.177,0.170,-1.272,-6.153,-5.130,-32.107,806347
0.187,0.153,-1.271,-8.550,-2.611,-31.511,810358
0.214,0.139,-1.264,-11.237,-1.176,-31.115,814369
0.231,0.119,-1.261,-13.985,-0.595,-30.198,818380
0.251,0.098,-1.256,-16.931,-0.855,-28.840,822391
0.278,0.072,-1.240,-20.519,-2.153,-27.359,826402
0.292,0.050,-1.231,-24.382,-4.672,-25.649,830413
0.303,0.042,-1.219,-28.412,-7.847,-24.137,834424
0.316,0.028,-1.214,-32.733,-11.893,-22.458,838434
0.337,0.012,-1.205,-36.076,-16.214,-21.084,842445
0.341,-0.005,-1.188,-38.733,-20.824,-18.779,846456
0.342,-0.016,-1.185,-40.931,-24.809,-16.702,850467
0.354,-0.020,-1.166,-42.733,-28.489,-14.260,854478
0.349,-0.028,-1.158,-43.756,-31.756,-12.595,858489
0.329,-0.026,-1.142,-43.954,-33.817,-10.855,862500
0.306,-0.017,-1.107,-42.748,-34.351,-9.344,866511
0.278,-0.015,-1.097,-40.626,-32.962,-8.397,870522
0.248,-0.008,-1.090,-37.740,-30.382,-8.107,874533
0.222,-0.012,-1.076,-34.122,-25.664,-8.000,878545
0.198,-0.017,-1.061,-30.366,-20.168,-8.550,882555
0.177,-0.030,-1.064,-26.901,-14.031,-8.840,886566
0.173,-0.046,-1.049,-23.527,-7.924,-9.374,890577
0.177,-0.065,-1.042,-20.763,-0.366,-9.435,894588
0.164,-0.078,-1.039,-17.817,6.397,-8.947,898599
0.167,-0.083,-1.036,-15.038,12.947,-7.756,902610
0.180,-0.106,-1.039,-12.901,18.122,-6.763,906621
0.194,-0.129,-1.041,-11.313,21.298,-5.985,910632
0.231,-0.165,-1.035,-10.336,21.985,-5.145,914643
0.265,-0.185,-1.033,-10.916,22.534,-4.672,918654
0.288,-0.215,-1.026,-11.252,21.359,-3.863,922674
0.298,-0.246,-1.021,-11.664,19.649,-2.321,926685
0.301,-0.269,-1.014,-12.611,16.901,-0.550,930696
0.306,-0.296,-1.014,-14.229,12.366,0.809,934707
0.314,-0.321,-1.010,-16.382,6.931,1.588,938719
0.321,-0.340,-0.991,-18.046,1.481,2.611,942729
0.321,-0.345,-1.000,-19.511,-3.725,3.786,946740
0.311,-0.349,-0.983,-20.198,-8.443,4.443,950751
0.283,-0.359,-0.957,-20.290,-12.840,4.779,954762
0.275,-0.375,-0.956,-20.107,-16.565,4.794,958775
0.246,-0.366,-0.949,-18.962,-19.344,4.504,962786
0.217,-0.361,-0.942,-16.687,-20.947,4.733,966798
0.191,-0.374,-0.927,-14.321,-21.847,4.702,970809
0.175,-0.384,-0.929,-11.924,-21.679,4.656,974820
0.144,-0.392,-0.919,-9.878,-20.901,4.473,978831
0.106,-0.398,-0.921,-7.191,-18.580,5.099,982842
0.064,-0.399,-0.917,-4.260,-14.870,6.748,986853
0.050,-0.414,-0.906,-0.702,-10.137,8.427,990864
0.038,-0.435,-0.917,2.305,-5.389,10.260,994875
0.036,-0.450,-0.907,4.947,-0.550,11.649,998887
0.030,-0.465,-0.915,7.313,3.573,13.221,1002899
0.038,-0.489,-0.914,9.695,8.214,14.794,1006910
0.047,-0.515,-0.920,11.115,12.229,16.092,1010921
0.058,-0.548,-0.933,11.725,15.450,17.664,1014932
0.077,-0.583,-0.937,11.084,17.466,19.374,1018943
0.092,-0.612,-0.950,9.740,19.099,21.237,1022963
0.121,-0.639,-0.965,7.878,19.847,23.496,1026975
0.140,-0.668,-0.965,5.115,19.817,25.679,1030986
0.162,-0.683,-0.965,1.863,18.840,27.221,1034997
0.163,-0.689,-0.978,-1.160,17.481,28.977,1039008
0.180,-0.683,-0.982,-3.695,15.832,30.046,1043028
0.180,-0.668,-0.994,-5.649,14.275,30.992,1047040
0.171,-0.663,-0.999,-6.427,13.084,31.374,1051050
0.161,-0.658,-0.998,-6.275,12.336,31.420,1055061
0.154,-0.655,-0.997,-5.771,12.458,31.511,1059072
0.158,-0.659,-1.003,-5.191,13.038,31.649,1063090
0.157,-0.666,-1.008,-3.527,13.359,31.664,1067101
0.159,-0.676,-1.020,-1.389,14.275,31.908,1071112
0.165,-0.681,-1.015,0.901,15.420,32.000,1075123
0.183,-0.687,-1.021,3.115,15.878,31.924,1079134
0.196,-0.695,-1.027,4.656,16.229,32.168,1083144
0.218,-0.705,-1.028,5.389,16.504,32.779,1087156
0.221,-0.709,-1.041,5.939,16.580,34.015,1091166
0.217,-0.699,-1.022,6.000,18.489,35.344,1095177
0.189,-0.700,-1.012,6.122,20.290,38.153,1099189
0.197,-0.689,-1.026,6.229,22.489,40.260,1103209
0.156,-0.705,-1.031,5.878,24.718,43.969,1107220
0.183,-0.689,-1.024,5.466,27.466,43.679,1111231
0.193,-0.699,-1.045,4.504,29.557,42.473,1115242
0.206,-0.710,-1.071,3.160,30.855,42.656,1119253
0.228,-0.713,-1.084,1.481,31.939,41.557,1123274
0.251,-0.687,-1.093,-0.626,33.160,40.137,1127285
0.265,-0.658,-1.113,-2.656,33.313,38.305,1131296
0.286,-0.641,-1.117,-4.473,32.840,35.893,1135308
0.288,-0.637,-1.105,-5.786,32.397,34.260,1139319
0.269,-0.629,-1.097,-6.260,32.092,34.183,1143337
0.260,-0.624,-1.092,-6.748,31.527,36.107,1147347
0.261,-0.601,-1.086,-7.756,30.504,38.611,1151358
0.266,-0.580,-1.082,-8.702,29.664,39.802,1155369
0.266,-0.564,-1.087,-8.565,28.137,39.435,1159380
0.276,-0.548,-1.092,-8.947,25.954,37.618,1163391
0.281,-0.549,-1.097,-9.496,22.870,34.519,1167402
0.269,-0.538,-1.090,-9.649,21.069,30.748,1171413
0.258,-0.539,-1.080,-11.527,18.824,27.634,1175424
0.249,-0.525,-1.101,-12.382,17.176,24.290,1179435
0.262,-0.517,-1.104,-12.794,15.252,21.252,1183446
0.266,-0.505,-1.119,-13.969,12.366,18.214,1187458
0.264,-0.477,-1.112,-14.046,10.198,15.557,1191468
0.261,-0.458,-1.122,-14.336,7.908,12.947,1195480
0.257,-0.436,-1.125,-14.275,5.221,10.687,1199491
0.236,-0.423,-1.136,-14.366,2.931,8.489,1203501
0.218,-0.406,-1.142,-14.305,1.191,7.084,1207512
0.195,-0.391,-1.144,-14.153,-0.061,5.802,1211523
0.169,-0.374,-1.162,-14.183,-0.580,4.718,1215534
0.141,-0.364,-1.158,-13.756,-0.489,4.061,1219545
0.120,-0.358,-1.157,-13.237,0.244,3.863,1223556
0.109,-0.353,-1.172,-12.504,1.374,3.725,1227568
0.094,-0.350,-1.157,-12.489,2.687,3.710,1231579
0.086,-0.351,-1.176,-11.924,4.229,3.359,1235591
0.080,-0.354,-1.168,-12.000,5.802,3.542,1239602
0.075,-0.354,-1.177,-12.107,7.176,3.878,1243622
0.090,-0.355,-1.169,-12.595,8.443,4.122,1247633
0.088,-0.350,-1.164,-12.977,9.313,4.565,1251644
0.090,-0.343,-1.163,-12.931,10.321,5.160,1255655
0.093,-0.332,-1.162,-13.191,11.176,6.000,1259666
0.093,-0.326,-1.153,-13.481,12.107,6.779,1263687
0.106,-0.312,-1.151,-14.244,12.718,7.176,1267698
0.118,-0.307,-1.143,-14.748,12.824,7.084,1271710
0.130,-0.303,-1.143,-15.618,12.382,6.382,1275721
0.140,-0.293,-1.141,-16.122,11.618,5.511,1279732
0.159,-0.282,-1.146,-16.504,10.168,4.351,1283744
0.183,-0.274,-1.154,-16.656,8.611,3.252,1287754
0.187,-0.275,-1.155,-17.069,7.542,2.763,1291765
0.178,-0.274,-1.161,-17.878,6.412,2.626,1295776
0.180,-0.279,-1.159,-18.702,5.176,2.305,1299787
0.189,-0.274,-1.161,-19.298,4.290,1.893,1303800
0.184,-0.278,-1.176,-19.832,3.084,1.618,1307811
0.182,-0.274,-1.159,-20.198,1.771,1.359,1311821
0.188,-0.278,-1.161,-20.824,0.656,1.084,1315832
0.179,-0.278,-1.159,-21.344,-0.092,1.176,1319843
0.176,-0.279,-1.153,-21.954,-0.641,1.359,1323864
0.170,-0.262,-1.149,-22.244,-0.458,1.969,1327875
0.164,-0.248,-1.125,-22.076,0.290,2.382,1331887
0.184,-0.251,-1.125,-21.802,0.855,1.985,1335897
0.192,-0.236,-1.112,-21.405,1.664,1.405,1339917
0.192,-0.229,-1.095,-20.672,2.336,0.382,1343928
0.205,-0.209,-1.105,-19.863,3.206,-0.412,1347939
0.209,-0.201,-1.090,-18.534,3.924,-1.252,1351950
0.224,-0.189,-1.084,-17.344,4.290,-1.771,1355961
0.245,-0.178,-1.079,-15.863,4.458,-2.229,1359972
0.244,-0.173,-1.077,-14.641,4.366,-2.321,1363983
0.255,-0.173,-1.073,-13.511,4.137,-2.397,1367995
0.243,-0.185,-1.076,-12.870,3.573,-2.824,1372006
0.251,-0.191,-1.075,-12.137,2.580,-3.176,1376017
0.253,-0.191,-1.073,-11.603,1.466,-3.679,1380028
0.251,-0.192,-1.065,-11.084,0.229,-4.168,1384039
0.250,-0.199,-1.090,-10.641,-0.901,-4.641,1388050
0.250,-0.204,-1.084,-10.275,-2.137,-5.008,1392061
0.234,-0.202,-1.080,-10.122,-3.298,-5.191,1396072
0.227,-0.205,-1.078,-10.092,-4.137,-5.282,1400084
0.229,-0.204,-1.089,-9.924,-4.824,-5.252,1404095
0.219,-0.198,-1.086,-9.786,-5.542,-5.176,1408106
0.217,-0.206,-1.090,-9.664,-6.000,-4.824,1412118
0.209,-0.203,-1.091,-9.511,-6.214,-4.198,1416128
0.206,-0.200,-1.086,-9.359,-6.290,-3.756,1420139
0.201,-0.197,-1.081,-9.191,-6.229,-2.809,1424150
0.204,-0.192,-1.084,-9.176,-6.260,-1.954,1428157
0.202,-0.176,-1.078,-8.947,-5.847,-1.084,1432168
0.190,-0.174,-1.082,-8.489,-5.344,-0.397,1436179
0.192,-0.165,-1.072,-7.756,-4.763,0.229,1440190
0.198,-0.170,-1.072,-7.115,-4.489,0.718,1444201
0.200,-0.166,-1.076,-6.275,-4.122,0.824,1448213
0.205,-0.160,-1.072,-5.618,-4.168,1.450,1452224
0.197,-0.154,-1.064,-4.947,-4.015,1.878,1456236
0.198,-0.156,-1.076,-3.878,-3.939,2.229,1460247
0.203,-0.155,-1.077,-2.962,-3.786,2.779,1464258
0.195,-0.154,-1.084,-1.847,-3.664,3.206,1468270
0.195,-0.152,-1.074,-0.565,-3.542,3.191,1472281
0.195,-0.162,-1.079,0.168,-3.588,3.389,1476292
0.202,-0.166,-1.086,0.962,-3.908,3.344,1480303
0.208,-0.170,-1.089,1.359,-4.397,3.466,1484314
0.215,-0.171,-1.097,1.634,-4.824,3.389,1488326
0.219,-0.184,-1.095,1.542,-5.511,3.405,1492336
0.215,-0.184,-1.106,1.374,-5.802,3.740,1496347
0.219,-0.196,-1.103,1.053,-6.656,3.679,1500358
0.218,-0.195,-1.107,0.397,-7.359,3.878,1504369
0.224,-0.199,-1.108,-0.260,-8.168,3.786,1508380
0.225,-0.194,-1.103,-0.962,-8.336,3.863,1512391
0.235,-0.188,-1.110,-1.267,-8.672,3.634,1516402
0.225,-0.172,-1.113,-1.481,-8.962,3.557,1520413
0.223,-0.174,-1.124,-1.817,-8.962,3.160,1524424
0.229,-0.177,-1.129,-1.740,-8.977,2.794,1528434
0.235,-0.177,-1.120,-1.969,-9.145,2.947,1532445
0.230,-0.181,-1.130,-2.397,-8.885,2.962,1536456
0.229,-0.184,-1.125,-2.565,-8.809,3.344,1540467
0.221,-0.181,-1.125,-3.160,-8.092,3.847,1544478
0.213,-0.182,-1.109,-3.176,-7.069,4.244,1548489
0.205,-0.180,-1.112,-3.221,-5.832,4.672,1552500
0.195,-0.178,-1.111,-3.084,-3.985,4.473,1556511
0.198,-0.179,-1.094,-2.809,-2.366,4.153,1560522
0.219,-0.173,-1.108,-2.595,-0.962,3.573,1564533
0.228,-0.169,-1.104,-2.046,0.290,2.992,1568545
0.236,-0.160,-1.106,-1.160,1.374,2.443,1572555
0.249,-0.163,-1.117,-0.229,2.046,1.802,1576566
0.261,-0.160,-1.121,0.473,2.137,1.221,1580577
0.270,-0.164,-1.114,0.916,1.985,0.840,1584588
0.269,-0.174,-1.108,1.008,1.374,0.427,1588599
0.270,-0.190,-1.128,0.687,1.023,0.153,1592610
0.267,-0.197,-1.125,0.107,0.107,-0.122,1596621
0.263,-0.202,-1.127,-0.580,-1.130,-0.534,1600632
0.261,-0.208,-1.120,-1.679,-2.321,-0.931,1604643
0.265,-0.207,-1.132,-2.504,-3.359,-1.313,1608654
0.259,-0.197,-1.127,-3.328,-4.153,-1.710,1612674
0.257,-0.193,-1.125,-3.832,-5.496,-2.275,1616685
0.258,-0.181,-1.125,-4.336,-6.153,-2.458,1620696
0.248,-0.176,-1.129,-4.504,-6.626,-2.855,1624707
0.240,-0.175,-1.122,-4.611,-7.267,-3.237,1628719
0.229,-0.176,-1.115,-4.641,-7.313,-3.527,1632729
0.222,-0.174,-1.125,-4.382,-7.267,-3.405,1636740
0.218,-0.163,-1.120,-4.244,-6.901,-3.252,1640751
0.209,-0.162,-1.106,-3.985,-6.458,-3.176,1644762
0.201,-0.163,-1.109,-3.573,-5.695,-3.298,1648775
0.197,-0.154,-1.111,-3.099,-5.115,-3.206,1652786
0.201,-0.164,-1.112,-2.366,-4.779,-3.511,1656798
0.207,-0.168,-1.116,-1.786,-4.565,-3.786,1660809
0.220,-0.161,-1.115,-1.145,-4.733,-4.031,1664820
0.230,-0.165,-1.112,-0.718,-5.374,-4.122,1668831
0.241,-0.176,-1.111,-0.336,-6.382,-4.076,1672842
0.248,-0.178,-1.112,-0.397,-7.481,-3.664,1676853
0.251,-0.176,-1.106,-0.214,-9.069,-3.038,1680864
0.250,-0.175,-1.115,0.092,-10.290,-2.473,1684875
0.243,-0.162,-1.112,0.153,-11.740,-2.168,1688887
0.237,-0.161,-1.117,0.382,-12.840,-1.908,1692899
0.233,-0.161,-1.131,0.733,-14.244,-2.351,1696910
0.230,-0.169,-1.111,0.794,-15.328,-2.489,1700921
0.218,-0.179,-1.128,0.733,-16.198,-2.779,1704932
0.219,-0.177,-1.123,0.733,-16.458,-2.672,1708943
0.217,-0.175,-1.123,0.595,-16.947,-2.840,1712963
0.219,-0.177,-1.134,0.427,-17.298,-2.962,1716975
0.217,-0.172,-1.140,-0.015,-17.405,-2.794,1720986
0.205,-0.178,-1.140,-0.183,-17.099,-2.702,1724997
0.207,-0.179,-1.141,-0.397,-16.641,-2.702,1729008
0.190,-0.177,-1.159,-0.473,-15.435,-2.092,1733028
0.179,-0.175,-1.145,-0.458,-14.153,-1.679,1737040
0.171,-0.178,-1.160,-0.534,-12.122,-1.313,1741050
0.175,-0.178,-1.159,-0.305,-10.076,-1.099,1745061
0.160,-0.181,-1.163,-0.122,-7.618,-0.595,1749072
0.167,-0.167,-1.160,0.290,-5.160,-0.260,1753090
0.163,-0.168,-1.167,0.550,-2.412,-0.107,1757101
0.164,-0.166,-1.173,0.977,0.122,-0.107,1761112
0.179,-0.169,-1.177,1.328,2.290,-0.244,1765123
0.189,-0.180,-1.174,1.374,4.290,-0.565,1769134
0.197,-0.178,-1.175,1.359,5.893,-0.473,1773144
0.196,-0.181,-1.187,1.115,7.435,-0.504,1777156
0.198,-0.185,-1.174,0.718,9.053,-0.076,1781166
0.198,-0.185,-1.174,0.611,10.107,0.260,1785177
0.213,-0.193,-1.185,0.351,10.427,0.092,1789189
0.213,-0.197,-1.179,-0.107,10.580,-0.214,1793209
0.229,-0.197,-1.176,-0.550,10.321,-0.626,1797220
0.233,-0.191,-1.174,-1.130,9.664,-0.901,1801231
0.238,-0.191,-1.179,-1.405,8.794,-1.206,1805242
0.246,-0.180,-1.167,-1.435,7.588,-1.542,1809253
0.248,-0.179,-1.167,-1.527,6.443,-1.603,1813274
0.242,-0.185,-1.178,-1.588,5.023,-1.664,1817285
0.241,-0.192,-1.170,-1.817,4.031,-1.664,1821296
0.235,-0.189,-1.175,-1.466,3.038,-1.710,1825308
0.235,-0.187,-1.166,-1.634,2.229,-1.542,1829319
0.228,-0.181,-1.170,-1.725,1.405,-1.908,1833337
0.232,-0.179,-1.171,-1.710,0.901,-2.092,1837347
0.224,-0.182,-1.166,-1.740,0.641,-2.550,1841358
0.217,-0.184,-1.166,-1.985,0.702,-2.916,1845369
0.210,-0.180,-1.167,-2.046,0.565,-3.176,1849380
0.209,-0.177,-1.158,-2.305,0.855,-3.359,1853391
0.212,-0.171,-1.158,-2.412,1.344,-3.267,1857402
0.207,-0.172,-1.154,-2.458,1.710,-3.374,1861413
0.198,-0.175,-1.157,-2.702,2.336,-3.252,1865424
0.188,-0.176,-1.159,-2.885,3.084,-3.053,1869435
0.187,-0.177,-1.162,-2.870,3.573,-2.809,1873446
0.187,-0.178,-1.163,-2.931,3.893,-2.550,1877458
0.193,-0.177,-1.152,-3.069,4.290,-2.244,1881468
0.190,-0.176,-1.153,-3.267,4.687,-1.679,1885480
0.194,-0.174,-1.163,-3.176,5.466,-1.344,1889491
0.187,-0.177,-1.147,-2.931,6.031,-1.145,1893501
0.192,-0.173,-1.154,-2.916,6.718,-1.206,1897512
0.191,-0.185,-1.155,-2.870,7.176,-1.344,1901523
0.194,-0.177,-1.164,-2.977,7.847,-1.542,1905534
0.198,-0.185,-1.146,-2.901,8.626,-1.771,1909545
0.200,-0.185,-1.149,-2.962,9.298,-1.725,1913556
0.208,-0.188,-1.149,-3.191,10.031,-1.664,1917568
0.202,-0.181,-1.147,-3.191,10.443,-1.389,1921579
0.212,-0.192,-1.130,-3.359,10.840,-1.542,1925591
0.214,-0.184,-1.132,-3.618,11.374,-1.374,1929602
0.226,-0.186,-1.137,-3.878,11.053,-1.802,1933622
0.232,-0.182,-1.130,-4.351,10.855,-2.443,1937633
0.234,-0.178,-1.133,-4.580,10.137,-2.794,1941644
0.242,-0.180,-1.122,-4.550,8.947,-3.237,1945655
0.256,-0.177,-1.127,-4.229,7.481,-3.710,1949666
0.261,-0.165,-1.121,-3.878,5.466,-3.863,1953687
0.269,-0.174,-1.126,-3.725,3.053,-4.000,1957698
0.270,-0.171,-1.125,-3.588,0.504,-3.832,1961710
0.271,-0.173,-1.132,-3.282,-1.817,-3.435,1965721
0.267,-0.174,-1.124,-3.038,-3.939,-3.313,1969732
0.256,-0.174,-1.129,-2.901,-5.832,-3.206,1973744
0.244,-0.174,-1.122,-2.443,-7.099,-2.855,1977754
0.231,-0.172,-1.122,-1.985,-7.939,-2.672,1981765
0.228,-0.178,-1.129,-1.481,-8.168,-2.565,1985776
0.223,-0.176,-1.119,-0.977,-8.061,-2.351,1989787
0.214,-0.173,-1.121,-0.336,-7.374,-2.305,1993800
0.220,-0.177,-1.121,-0.321,-6.580,-2.214,1997811
0.216,-0.184,-1.134,-0.244,-5.481,-2.244,2001822
