acc_x,acc_y,acc_z,gyro_x,gyro_y,gyro_z,time
0.250,-0.045,-1.063,0.366,14.076,-14.580,1385293066
0.254,-0.042,-1.068,1.176,13.344,-15.145,1385297095
0.250,-0.049,-1.062,1.450,12.611,-15.618,1385301105
0.253,-0.052,-1.068,1.985,11.527,-16.076,1385305115
0.248,-0.054,-1.069,2.275,10.382,-16.855,1385309125
0.250,-0.052,-1.066,2.305,9.664,-17.725,1385313134
0.240,-0.055,-1.068,1.832,8.855,-18.229,1385317144
0.239,-0.059,-1.082,1.740,8.229,-18.885,1385321155
0.234,-0.054,-1.076,1.405,7.435,-19.664,1385325164
0.222,-0.054,-1.081,1.160,6.779,-20.076,1385329173
0.221,-0.065,-1.079,1.221,6.244,-20.397,1385333183
0.214,-0.060,-1.075,1.191,6.092,-20.763,1385337193
0.208,-0.062,-1.070,0.763,5.405,-21.328,1385341203
0.202,-0.050,-1.086,0.809,5.496,-21.710,1385345213
0.196,-0.050,-1.085,0.550,5.466,-21.802,1385349223
0.183,-0.046,-1.084,0.977,5.511,-22.305,1385353233
0.183,-0.048,-1.082,0.840,5.695,-22.229,1385357243
0.178,-0.049,-1.089,1.084,5.511,-22.580,1385361253
0.187,-0.049,-1.090,0.947,5.282,-22.336,1385365263
0.182,-0.058,-1.089,1.191,4.702,-22.550,1385369273
0.185,-0.062,-1.099,1.496,5.145,-22.595,1385373283
0.181,-0.063,-1.099,1.786,4.473,-22.947,1385377292
0.179,-0.061,-1.100,2.076,4.687,-22.702,1385381303
0.175,-0.059,-1.109,2.672,4.122,-22.656,1385385314
0.176,-0.063,-1.102,3.099,3.863,-22.397,1385389324
0.171,-0.073,-1.121,3.328,3.527,-22.000,1385393333
0.174,-0.077,-1.122,3.313,3.359,-21.969,1385397343
0.169,-0.079,-1.130,3.481,3.435,-21.328,1385401353
0.179,-0.081,-1.136,3.298,3.160,-21.099,1385405363
0.178,-0.085,-1.137,3.115,3.252,-20.763,1385409372
0.170,-0.092,-1.133,2.962,2.931,-20.611,1385413382
0.176,-0.086,-1.147,2.534,3.099,-20.275,1385417392
0.175,-0.091,-1.140,1.908,3.282,-20.229,1385421402
0.165,-0.096,-1.155,1.603,3.450,-19.969,1385425411
0.180,-0.097,-1.150,1.359,3.878,-20.061,1385429421
0.183,-0.099,-1.146,1.176,3.802,-19.817,1385433431
0.181,-0.097,-1.160,0.824,3.817,-19.756,1385437441
0.191,-0.103,-1.161,0.550,3.725,-19.802,1385441451
0.191,-0.101,-1.145,0.504,3.954,-20.183,1385445460
0.199,-0.109,-1.143,0.366,4.137,-20.061,1385449469
0.204,-0.102,-1.140,0.504,4.595,-20.351,1385453478
0.202,-0.115,-1.145,0.519,4.992,-20.473,1385457488
0.205,-0.101,-1.133,-0.015,5.573,-20.489,1385461498
0.216,-0.100,-1.133,-0.275,5.603,-21.038,1385465507
0.220,-0.109,-1.129,-0.458,5.771,-21.344,1385469517
0.229,-0.106,-1.126,-0.656,5.725,-22.031,1385473527
0.229,-0.101,-1.126,-0.580,5.237,-22.870,1385477537
0.236,-0.107,-1.116,-0.824,4.748,-23.679,1385481546
0.229,-0.099,-1.116,-0.916,4.000,-24.382,1385485556
0.234,-0.107,-1.104,-0.992,3.084,-25.053,1385489565
0.234,-0.102,-1.103,-0.855,2.336,-25.893,1385493574
0.235,-0.099,-1.102,-0.748,1.588,-26.626,1385497584
0.229,-0.091,-1.101,-0.397,0.824,-27.374,1385501595
0.218,-0.085,-1.109,0.275,0.229,-28.122,1385505606
0.209,-0.083,-1.105,1.115,-0.748,-28.687,1385509615
0.197,-0.087,-1.104,1.802,-1.527,-28.763,1385513624
0.195,-0.092,-1.112,2.290,-2.504,-29.176,1385517634
0.187,-0.093,-1.111,2.214,-2.855,-29.069,1385521643
0.180,-0.092,-1.123,2.366,-3.573,-29.359,1385525653
0.175,-0.095,-1.116,2.443,-4.473,-29.267,1385529663
0.154,-0.095,-1.117,2.198,-4.748,-29.298,1385533673
0.144,-0.086,-1.115,1.695,-5.206,-29.588,1385537683
0.132,-0.087,-1.116,1.221,-5.191,-29.450,1385541693
0.113,-0.083,-1.122,0.962,-4.473,-29.069,1385545713
0.095,-0.082,-1.120,0.290,-3.939,-28.534,1385549723
0.083,-0.079,-1.119,0.000,-3.221,-28.458,1385553733
0.081,-0.080,-1.115,-0.443,-2.473,-27.802,1385557743
0.073,-0.077,-1.115,-0.656,-1.374,-27.344,1385561753
0.074,-0.072,-1.114,-0.824,-0.397,-26.626,1385565770
0.072,-0.077,-1.113,-0.916,0.260,-26.107,1385569780
0.076,-0.083,-1.116,-1.130,0.779,-25.405,1385573790
0.067,-0.080,-1.113,-1.542,0.718,-24.626,1385577800
0.063,-0.075,-1.114,-1.664,1.008,-23.939,1385581810
0.070,-0.084,-1.110,-1.710,1.344,-23.053,1385585820
0.071,-0.077,-1.115,-1.328,1.298,-22.473,1385589830
0.066,-0.084,-1.117,-1.313,1.206,-21.588,1385593841
0.070,-0.085,-1.120,-0.901,1.252,-20.702,1385597850
0.075,-0.083,-1.125,-0.916,1.145,-19.908,1385601860
0.066,-0.093,-1.120,-0.840,1.099,-19.099,1385605870
0.065,-0.093,-1.127,-0.626,1.145,-18.489,1385609880
0.067,-0.103,-1.124,-0.397,1.344,-17.588,1385613890
0.072,-0.095,-1.111,-0.382,1.603,-16.550,1385617900
0.077,-0.097,-1.121,-0.382,1.771,-15.679,1385621910
0.088,-0.103,-1.137,-0.763,1.969,-15.023,1385625919
0.088,-0.105,-1.134,-1.252,1.573,-14.504,1385629929
0.100,-0.111,-1.127,-1.939,1.038,-13.771,1385633939
0.096,-0.113,-1.132,-2.366,0.779,-13.588,1385637948
0.100,-0.118,-1.141,-2.962,0.366,-13.267,1385641959
0.096,-0.119,-1.130,-2.870,0.183,-12.748,1385645968
0.095,-0.113,-1.122,-2.748,0.275,-12.336,1385649978
0.089,-0.113,-1.122,-2.779,0.534,-12.076,1385653988
0.091,-0.107,-1.122,-3.206,0.962,-11.817,1385657998
0.091,-0.104,-1.113,-3.344,1.466,-11.557,1385662008
0.098,-0.105,-1.114,-3.298,2.061,-11.542,1385666026
0.103,-0.107,-1.116,-3.160,2.763,-11.267,1385670037
0.104,-0.110,-1.115,-2.931,3.267,-11.359,1385674046
0.104,-0.102,-1.107,-2.840,4.183,-11.450,1385678055
0.104,-0.107,-1.116,-2.687,4.779,-11.557,1385682065
0.099,-0.102,-1.116,-2.534,5.420,-11.374,1385686083
0.111,-0.098,-1.112,-2.427,6.046,-11.435,1385690093
0.115,-0.112,-1.107,-2.015,6.122,-11.099,1385694103
0.128,-0.113,-1.124,-1.878,6.031,-11.099,1385698113
0.146,-0.112,-1.120,-1.405,5.664,-11.084,1385702123
0.144,-0.113,-1.106,-1.389,5.405,-11.145,1385706140
0.147,-0.113,-1.115,-1.115,4.626,-11.084,1385710149
0.155,-0.113,-1.119,-1.053,4.000,-11.053,1385714158
0.154,-0.111,-1.119,-0.992,3.603,-11.206,1385718168
0.154,-0.112,-1.112,-0.763,3.359,-11.176,1385722178
0.159,-0.118,-1.111,-0.397,2.840,-11.145,1385726189
0.167,-0.112,-1.107,-0.260,2.794,-11.176,1385730198
0.167,-0.116,-1.112,-0.458,2.687,-11.435,1385734208
0.172,-0.112,-1.103,-0.656,2.611,-11.740,1385738218
0.170,-0.112,-1.100,-0.855,2.763,-12.122,1385742228
0.182,-0.104,-1.095,-0.794,2.656,-12.336,1385746241
0.181,-0.107,-1.101,-0.443,2.977,-12.916,1385750251
0.185,-0.105,-1.100,-0.336,2.824,-13.069,1385754261
0.189,-0.101,-1.097,-0.046,2.916,-13.710,1385758271
0.200,-0.104,-1.094,0.122,2.366,-14.260,1385762281
0.200,-0.095,-1.101,0.305,2.412,-14.885,1385766301
0.207,-0.094,-1.096,0.397,2.351,-15.710,1385770310
0.210,-0.094,-1.098,0.595,2.458,-16.550,1385774319
0.207,-0.083,-1.098,0.641,2.122,-17.450,1385778329
0.206,-0.087,-1.096,0.885,1.664,-18.122,1385782339
0.198,-0.085,-1.099,1.405,1.481,-18.672,1385786358
0.205,-0.081,-1.096,1.496,1.145,-19.374,1385790368
0.201,-0.079,-1.104,1.786,0.931,-19.786,1385794378
0.205,-0.085,-1.112,2.183,0.305,-20.031,1385798388
0.198,-0.092,-1.108,2.656,0.031,-20.275,1385802398
0.196,-0.092,-1.115,3.160,-0.702,-20.473,1385806408
0.193,-0.096,-1.118,4.107,-1.634,-20.641,1385810419
0.189,-0.101,-1.129,4.153,-2.427,-20.626,1385814428
0.181,-0.112,-1.128,4.321,-3.191,-20.656,1385818437
0.179,-0.110,-1.141,3.954,-3.878,-20.244,1385822447
0.179,-0.119,-1.142,3.420,-4.565,-20.290,1385826456
0.177,-0.121,-1.149,2.641,-5.176,-20.214,1385830467
0.167,-0.126,-1.149,2.214,-6.183,-20.061,1385834476
0.158,-0.128,-1.151,1.267,-6.046,-19.954,1385838485
0.149,-0.131,-1.145,0.489,-5.771,-19.634,1385842495
0.148,-0.123,-1.144,-0.443,-5.542,-19.466,1385846505
0.137,-0.122,-1.128,-1.038,-4.901,-19.130,1385850514
0.142,-0.120,-1.124,-1.985,-4.046,-18.763,1385854524
0.141,-0.110,-1.122,-2.366,-2.977,-18.427,1385858534
0.134,-0.115,-1.115,-2.748,-1.573,-18.397,1385862544
0.137,-0.105,-1.107,-2.687,-0.183,-18.382,1385866553
0.140,-0.096,-1.094,-2.427,1.359,-17.863,1385870563
0.133,-0.093,-1.092,-1.969,2.641,-18.015,1385874574
0.145,-0.099,-1.091,-2.397,3.725,-17.511,1385878583
0.159,-0.088,-1.075,-2.198,4.550,-17.511,1385882593
0.164,-0.093,-1.061,-1.771,4.916,-17.557,1385886604
0.169,-0.093,-1.072,-1.313,5.221,-17.756,1385890613
0.188,-0.092,-1.074,-0.870,4.977,-18.061,1385894623
0.188,-0.095,-1.066,-0.229,4.977,-18.443,1385898633
0.189,-0.084,-1.060,0.626,3.939,-18.595,1385902643
0.190,-0.093,-1.067,1.634,3.206,-18.870,1385906663
0.184,-0.089,-1.063,2.519,2.061,-18.977,1385910673
0.183,-0.085,-1.071,3.740,0.916,-18.931,1385914683
0.183,-0.092,-1.086,4.763,-0.229,-19.053,1385918694
0.180,-0.094,-1.068,6.183,-1.725,-18.840,1385922703
0.179,-0.102,-1.076,6.947,-2.779,-18.626,1385926723
0.177,-0.102,-1.076,7.282,-3.511,-18.763,1385930733
0.171,-0.111,-1.086,7.405,-4.107,-19.115,1385934743
0.164,-0.121,-1.084,7.282,-4.305,-19.069,1385938753
0.163,-0.119,-1.085,6.901,-4.534,-19.328,1385942762
0.158,-0.130,-1.074,6.504,-4.275,-19.344,1385946779
0.154,-0.128,-1.081,5.573,-4.214,-19.099,1385950789
0.148,-0.134,-1.086,5.130,-4.183,-19.389,1385954799
0.158,-0.136,-1.094,4.076,-4.107,-19.420,1385958809
0.161,-0.139,-1.100,3.374,-3.924,-19.481,1385962819
0.157,-0.134,-1.091,2.351,-3.969,-19.817,1385966830
0.158,-0.135,-1.083,1.634,-3.969,-19.649,1385970840
0.153,-0.123,-1.078,1.298,-3.878,-19.802,1385974849
0.151,-0.123,-1.075,1.252,-3.588,-19.817,1385978859
0.142,-0.119,-1.068,1.832,-4.122,-19.496,1385982869
0.147,-0.117,-1.058,2.427,-4.351,-19.145,1385986883
0.145,-0.113,-1.063,3.313,-4.840,-18.855,1385990892
0.147,-0.109,-1.070,3.924,-4.962,-18.550,1385994903
0.150,-0.114,-1.067,4.824,-5.023,-18.122,1385998912
0.148,-0.115,-1.063,5.908,-5.710,-17.969,1386002922
0.144,-0.112,-1.077,7.267,-6.489,-17.282,1386006941
0.144,-0.121,-1.066,8.351,-7.084,-16.794,1386010953
0.151,-0.127,-1.071,9.206,-8.092,-16.275,1386014963
0.158,-0.127,-1.074,9.725,-9.374,-15.542,1386018973
0.162,-0.132,-1.075,10.656,-10.092,-15.221,1386022984
0.160,-0.128,-1.079,11.435,-10.962,-15.130,1386026993
0.150,-0.133,-1.075,12.015,-11.466,-14.534,1386031003
0.140,-0.126,-1.083,12.931,-11.939,-13.893,1386035014
0.115,-0.126,-1.080,13.649,-11.771,-13.405,1386039023
0.107,-0.121,-1.083,14.351,-10.977,-12.397,1386043033
0.101,-0.123,-1.080,14.656,-10.504,-11.878,1386047042
0.084,-0.126,-1.086,14.672,-8.855,-10.977,1386051053
0.084,-0.124,-1.088,14.504,-6.595,-10.580,1386055062
0.071,-0.127,-1.105,13.771,-4.489,-10.000,1386059072
0.075,-0.134,-1.112,12.718,-2.321,-9.496,1386063082
0.064,-0.140,-1.115,12.046,-0.382,-8.855,1386067092
0.081,-0.142,-1.115,11.435,1.359,-8.382,1386071102
0.091,-0.132,-1.125,10.840,2.809,-8.031,1386075112
0.097,-0.134,-1.135,10.290,4.107,-7.496,1386079122
0.099,-0.148,-1.131,9.832,4.916,-6.977,1386083132
0.110,-0.143,-1.127,9.176,5.038,-6.458,1386087142
0.114,-0.152,-1.135,8.580,5.313,-5.939,1386091153
0.128,-0.151,-1.134,8.198,5.542,-5.450,1386095162
0.129,-0.155,-1.137,7.756,5.252,-5.023,1386099172
0.144,-0.161,-1.136,7.496,4.870,-4.595,1386103182
0.150,-0.151,-1.135,6.885,4.733,-4.748,1386107192
0.148,-0.157,-1.131,6.656,4.733,-4.290,1386111202
0.151,-0.159,-1.131,5.878,4.137,-4.275,1386115211
0.157,-0.150,-1.127,5.481,4.031,-4.489,1386119220
0.156,-0.162,-1.137,5.145,4.733,-4.977,1386123229
0.157,-0.165,-1.129,4.916,4.870,-5.298,1386127239
0.159,-0.160,-1.138,4.489,4.794,-5.725,1386131248
0.164,-0.167,-1.135,4.702,5.023,-6.244,1386135258
0.165,-0.168,-1.136,4.336,5.038,-6.687,1386139269
0.169,-0.168,-1.126,3.664,4.794,-7.405,1386143279
0.174,-0.172,-1.125,3.481,5.115,-8.397,1386147288
0.170,-0.163,-1.116,2.962,5.206,-9.252,1386151299
0.161,-0.166,-1.121,2.763,5.237,-10.198,1386155308
0.168,-0.163,-1.104,2.534,5.053,-10.702,1386159318
0.167,-0.155,-1.103,2.550,4.901,-11.115,1386163328
0.166,-0.145,-1.109,2.427,5.053,-12.015,1386167338
0.173,-0.140,-1.109,2.351,5.282,-12.626,1386171348
0.174,-0.137,-1.115,2.198,5.023,-13.160,1386175358
0.160,-0.137,-1.116,2.305,4.504,-13.664,1386179368
0.173,-0.146,-1.125,2.763,3.878,-13.588,1386183377
0.172,-0.150,-1.124,3.160,2.702,-13.740,1386187387
0.177,-0.158,-1.126,3.282,1.389,-13.847,1386191400
0.174,-0.171,-1.129,3.191,0.092,-14.137,1386195409
0.175,-0.171,-1.143,2.519,-1.344,-14.229,1386199419
0.170,-0.174,-1.140,2.000,-2.458,-14.397,1386203429
0.165,-0.181,-1.144,0.947,-3.099,-14.702,1386207439
0.151,-0.168,-1.145,0.260,-3.649,-14.702,1386211448
0.142,-0.163,-1.134,0.031,-3.420,-14.916,1386215458
0.142,-0.165,-1.137,-0.443,-3.176,-14.885,1386219468
0.132,-0.163,-1.139,-0.489,-2.550,-14.840,1386223477
0.128,-0.152,-1.130,-0.412,-2.290,-14.870,1386227487
0.122,-0.147,-1.124,-0.473,-1.389,-14.595,1386231497
0.117,-0.146,-1.129,-0.290,-0.550,-14.687,1386235506
0.126,-0.152,-1.126,-0.092,0.275,-14.351,1386239516
0.117,-0.141,-1.126,-0.015,0.809,-14.000,1386243526
0.125,-0.152,-1.133,0.351,0.947,-13.786,1386247536
0.128,-0.158,-1.125,0.015,1.985,-13.817,1386251545
0.131,-0.145,-1.122,0.168,2.290,-13.542,1386255555
0.125,-0.147,-1.137,-0.290,2.550,-13.435,1386259564
0.123,-0.155,-1.144,-0.702,2.702,-13.420,1386263573
0.139,-0.154,-1.131,-1.435,2.748,-13.267,1386267583
0.135,-0.158,-1.140,-1.817,2.366,-13.374,1386271594
0.136,-0.161,-1.131,-2.305,2.137,-13.282,1386275605
0.144,-0.160,-1.130,-2.794,1.481,-13.420,1386279614
0.143,-0.161,-1.138,-3.252,0.748,-13.328,1386283623
0.146,-0.161,-1.125,-3.817,0.321,-13.206,1386287632
0.156,-0.163,-1.126,-4.092,-0.198,-13.359,1386291642
0.152,-0.166,-1.116,-4.336,-0.366,-13.435,1386295653
0.149,-0.158,-1.119,-4.382,-0.916,-13.481,1386299662
0.154,-0.161,-1.110,-4.107,-1.130,-13.450,1386303671
0.149,-0.159,-1.110,-3.679,-1.374,-13.374,1386307681
0.150,-0.156,-1.102,-3.084,-1.511,-13.481,1386311691
0.151,-0.148,-1.114,-2.580,-1.115,-13.267,1386315711
0.145,-0.153,-1.112,-1.710,-0.412,-13.115,1386319720
0.139,-0.166,-1.110,-0.702,0.611,-13.099,1386323730
0.146,-0.165,-1.109,0.397,1.969,-13.115,1386327740
0.137,-0.164,-1.116,1.145,3.298,-13.145,1386331750
0.142,-0.167,-1.113,1.863,4.901,-13.069,1386335767
0.145,-0.178,-1.111,2.153,6.550,-13.450,1386339777
0.155,-0.183,-1.120,2.122,7.878,-13.710,1386343787
0.159,-0.195,-1.123,1.603,8.779,-14.183,1386347797
0.170,-0.197,-1.110,1.176,9.649,-14.901,1386351808
0.181,-0.203,-1.115,0.611,10.458,-15.588,1386355818
0.184,-0.208,-1.120,0.107,10.565,-16.137,1386359827
0.188,-0.210,-1.123,-0.580,10.366,-16.565,1386363836
0.191,-0.216,-1.113,-0.748,10.015,-17.176,1386367846
0.200,-0.213,-1.108,-0.916,9.511,-17.527,1386371857
0.190,-0.215,-1.120,-1.252,8.840,-17.802,1386375867
0.195,-0.217,-1.123,-1.847,8.397,-18.550,1386379877
0.201,-0.213,-1.122,-2.550,7.756,-18.977,1386383887
0.198,-0.209,-1.103,-2.809,6.427,-19.252,1386387896
0.208,-0.207,-1.101,-3.481,5.374,-19.664,1386391906
0.209,-0.202,-1.099,-4.427,3.771,-20.183,1386395916
0.212,-0.198,-1.092,-5.328,2.473,-20.290,1386399925
0.214,-0.183,-1.090,-5.939,0.901,-20.641,1386403934
0.208,-0.171,-1.086,-6.107,-0.672,-20.855,1386407944
0.206,-0.163,-1.089,-6.046,-2.153,-21.084,1386411954
0.198,-0.144,-1.078,-5.435,-3.176,-21.069,1386415963
0.187,-0.139,-1.086,-4.183,-3.634,-20.840,1386419974
0.177,-0.137,-1.084,-3.176,-4.565,-20.534,1386423983
0.180,-0.127,-1.086,-2.351,-4.397,-20.122,1386427992
0.165,-0.139,-1.090,-1.267,-4.275,-19.588,1386432001
0.162,-0.133,-1.095,-0.137,-4.061,-19.328,1386436021
0.160,-0.140,-1.098,0.931,-3.863,-19.038,1386440031
0.171,-0.143,-1.102,1.435,-4.122,-18.290,1386444042
0.181,-0.158,-1.117,1.557,-4.153,-18.198,1386448051
0.197,-0.164,-1.122,1.130,-4.870,-18.015,1386452060
0.191,-0.179,-1.124,0.443,-5.237,-17.969,1386456080
0.203,-0.181,-1.142,-0.260,-5.817,-18.214,1386460090
0.203,-0.190,-1.127,-1.023,-6.412,-18.779,1386464101
0.204,-0.190,-1.135,-1.939,-6.870,-19.023,1386468110
0.195,-0.190,-1.131,-2.870,-7.359,-19.130,1386472120
0.195,-0.180,-1.134,-3.893,-7.557,-19.511,1386476136
0.191,-0.178,-1.132,-4.977,-7.573,-19.679,1386480147
0.184,-0.172,-1.122,-6.183,-7.267,-19.954,1386484156
0.178,-0.178,-1.127,-7.099,-6.611,-19.985,1386488165
0.170,-0.173,-1.117,-7.924,-5.771,-20.427,1386492175
0.171,-0.167,-1.122,-8.550,-4.916,-20.534,1386496184
0.166,-0.164,-1.119,-9.099,-4.229,-20.641,1386500193
0.167,-0.161,-1.116,-8.977,-3.634,-20.687,1386504203
0.165,-0.156,-1.107,-9.496,-3.053,-20.672,1386508213
0.167,-0.156,-1.104,-9.435,-2.977,-20.473,1386512223
0.169,-0.145,-1.102,-9.466,-2.779,-20.290,1386516232
0.175,-0.146,-1.107,-9.374,-2.656,-20.122,1386520242
0.165,-0.137,-1.094,-9.542,-2.885,-19.954,1386524252
0.159,-0.136,-1.086,-9.145,-2.947,-19.695,1386528263
0.160,-0.131,-1.090,-8.718,-2.427,-19.511,1386532272
0.156,-0.133,-1.081,-8.015,-2.137,-19.511,1386536292
0.149,-0.123,-1.083,-7.206,-1.832,-19.282,1386540302
0.142,-0.123,-1.080,-6.519,-1.450,-19.023,1386544313
0.131,-0.115,-1.081,-5.725,-1.099,-18.656,1386548323
0.131,-0.133,-1.080,-5.176,-0.702,-18.031,1386552332
0.133,-0.126,-1.083,-4.824,-0.763,-17.710,1386556352
0.134,-0.133,-1.076,-4.901,-0.595,-17.191,1386560362
0.145,-0.139,-1.083,-4.504,-0.443,-17.099,1386564373
0.143,-0.139,-1.069,-4.504,-0.550,-16.763,1386568382
0.139,-0.131,-1.074,-4.519,-0.779,-16.397,1386572392
0.133,-0.140,-1.090,-4.763,-0.779,-15.908,1386576408
0.132,-0.127,-1.081,-4.427,-0.794,-15.603,1386580419
0.130,-0.131,-1.087,-4.397,-0.672,-14.947,1386584428
0.134,-0.137,-1.075,-4.366,-0.718,-14.702,1386588437
0.140,-0.136,-1.070,-4.336,-0.336,-14.489,1386592447
0.139,-0.133,-1.077,-4.397,-0.519,-14.290,1386596456
0.142,-0.140,-1.074,-4.366,-0.656,-13.954,1386600467
0.140,-0.148,-1.068,-4.122,-1.069,-13.802,1386604476
0.137,-0.145,-1.077,-4.260,-1.695,-13.542,1386608485
0.133,-0.146,-1.070,-4.244,-1.924,-13.466,1386612495
0.137,-0.149,-1.068,-4.427,-2.153,-12.992,1386616505
0.133,-0.145,-1.068,-4.641,-2.382,-12.916,1386620514
0.140,-0.144,-1.070,-4.427,-2.260,-12.672,1386624524
0.130,-0.133,-1.062,-3.893,-2.366,-12.382,1386628534
0.124,-0.133,-1.058,-3.405,-2.366,-12.550,1386632544
0.127,-0.138,-1.071,-2.321,-2.321,-11.863,1386636553
0.122,-0.137,-1.065,-1.557,-1.863,-11.466,1386640563
0.125,-0.137,-1.073,-0.840,-2.107,-11.053,1386644574
0.120,-0.140,-1.076,-0.168,-1.924,-10.473,1386648583
0.114,-0.149,-1.067,0.519,-1.664,-9.954,1386652593
0.122,-0.151,-1.060,1.267,-1.420,-9.527,1386656604
0.114,-0.152,-1.077,1.832,-0.794,-9.176,1386660613
0.119,-0.165,-1.078,2.366,-0.260,-8.763,1386664623
0.122,-0.166,-1.073,2.305,-0.092,-8.427,1386668633
0.124,-0.169,-1.070,2.901,-0.198,-8.214,1386672643
0.137,-0.176,-1.073,2.397,-0.229,-7.710,1386676663
0.143,-0.175,-1.072,2.595,0.137,-7.679,1386680673
0.147,-0.182,-1.069,2.565,-0.061,-7.557,1386684683
0.157,-0.196,-1.072,2.473,-0.336,-7.328,1386688694
0.153,-0.208,-1.072,2.504,-0.366,-7.374,1386692703
0.163,-0.205,-1.075,2.107,-0.534,-7.221,1386696723
0.165,-0.213,-1.070,1.786,-0.641,-7.405,1386700733
0.164,-0.214,-1.064,1.298,-0.809,-7.466,1386704743
0.157,-0.210,-1.056,1.221,-0.595,-7.740,1386708753
0.156,-0.212,-1.055,0.656,-0.137,-7.893,1386712762
0.157,-0.220,-1.051,0.183,0.153,-8.000,1386716779
0.161,-0.215,-1.051,-0.198,0.580,-8.137,1386720789
0.153,-0.209,-1.045,-0.336,1.313,-8.351,1386724799
0.148,-0.196,-1.043,-0.275,2.321,-8.794,1386728809
0.138,-0.181,-1.048,0.015,3.435,-8.809,1386732819
0.134,-0.172,-1.047,0.611,3.908,-8.718,1386736830
0.132,-0.169,-1.047,1.679,4.427,-8.656,1386740840
0.150,-0.156,-1.041,2.321,4.427,-8.305,1386744849
0.161,-0.157,-1.046,3.344,4.305,-8.198,1386748859
0.176,-0.149,-1.047,4.336,4.092,-7.954,1386752869
0.169,-0.147,-1.059,5.725,4.031,-8.031,1386756883
0.182,-0.149,-1.061,7.435,3.588,-8.351,1386760892
0.171,-0.152,-1.074,8.672,3.695,-8.305,1386764903
0.162,-0.151,-1.072,10.107,3.618,-8.260,1386768912
0.169,-0.160,-1.080,11.084,3.496,-8.122,1386772922
0.169,-0.160,-1.078,12.000,3.115,-8.092,1386776941
0.168,-0.175,-1.086,12.351,3.389,-8.137,1386780953
0.178,-0.189,-1.087,12.550,3.069,-8.458,1386784963
0.174,-0.196,-1.099,12.397,2.855,-9.221,1386788973
0.169,-0.199,-1.108,11.771,2.321,-9.511,1386792984
0.170,-0.208,-1.120,11.069,1.847,-9.756,1386796993
0.182,-0.217,-1.122,10.107,1.420,-10.107,1386801003
0.185,-0.222,-1.117,9.069,1.115,-10.534,1386805014
0.174,-0.220,-1.122,7.969,0.733,-11.221,1386809023
0.167,-0.223,-1.122,7.328,0.870,-11.466,1386813033
0.166,-0.222,-1.132,6.687,0.595,-11.802,1386817042
0.165,-0.225,-1.138,6.015,0.351,-11.893,1386821053
0.171,-0.225,-1.137,5.405,0.046,-11.832,1386825062
0.167,-0.234,-1.136,5.099,-0.473,-11.740,1386829072
0.172,-0.238,-1.133,4.565,-0.748,-12.031,1386833082
0.170,-0.236,-1.130,4.214,-1.176,-12.000,1386837092
0.167,-0.237,-1.132,3.924,-1.435,-12.015,1386841102
0.162,-0.235,-1.131,3.450,-1.313,-12.244,1386845112
0.155,-0.228,-1.134,3.038,-1.023,-12.550,1386849122
0.147,-0.222,-1.126,2.382,-0.092,-12.565,1386853132
0.144,-0.213,-1.124,2.229,0.794,-12.550,1386857142
0.139,-0.212,-1.125,1.985,1.145,-12.458,1386861153
0.135,-0.208,-1.116,2.305,1.771,-12.626,1386865162
0.136,-0.198,-1.116,2.214,2.885,-12.443,1386869172
0.141,-0.196,-1.107,2.000,3.298,-12.229,1386873182
0.141,-0.192,-1.124,1.985,3.374,-12.260,1386877192
0.152,-0.201,-1.114,1.115,2.733,-11.954,1386881202
0.159,-0.199,-1.116,0.641,2.244,-11.786,1386885211
0.174,-0.202,-1.111,0.366,1.328,-11.496,1386889220
0.176,-0.198,-1.120,0.000,0.168,-11.740,1386893229
0.172,-0.198,-1.122,-0.489,-1.053,-11.756,1386897239
0.170,-0.193,-1.122,-1.099,-2.275,-11.740,1386901248
0.162,-0.190,-1.119,-1.130,-3.237,-11.313,1386905258
0.166,-0.186,-1.121,-1.038,-4.015,-11.130,1386909269
0.162,-0.187,-1.125,-1.130,-4.748,-11.115,1386913279
0.160,-0.188,-1.120,-1.191,-5.008,-10.992,1386917288
0.151,-0.183,-1.125,-1.466,-4.641,-10.855,1386921299
0.148,-0.189,-1.119,-1.420,-4.611,-10.718,1386925308
0.142,-0.191,-1.127,-1.328,-3.954,-10.672,1386929318
0.133,-0.191,-1.117,-0.992,-3.695,-10.519,1386933328
0.144,-0.192,-1.118,-0.901,-2.962,-10.504,1386937338
0.142,-0.195,-1.120,-1.069,-2.458,-10.672,1386941348
0.152,-0.202,-1.114,-1.084,-1.786,-10.870,1386945358
0.148,-0.195,-1.121,-1.344,-1.359,-10.519,1386949368
0.156,-0.203,-1.117,-1.115,-0.733,-10.626,1386953377
0.157,-0.199,-1.115,-1.099,-0.443,-10.901,1386957387
0.159,-0.201,-1.120,-0.794,-0.336,-11.115,1386961400
0.168,-0.209,-1.115,-0.412,-0.321,-11.527,1386965409
0.171,-0.203,-1.115,-0.687,-0.794,-11.588,1386969419
0.167,-0.207,-1.128,-0.595,-1.420,-11.832,1386973429
0.171,-0.209,-1.124,-0.733,-2.031,-11.756,1386977439
0.171,-0.205,-1.131,-0.855,-2.595,-11.863,1386981448
0.168,-0.213,-1.118,-0.992,-2.855,-12.229,1386985458
0.171,-0.209,-1.122,-0.977,-2.855,-12.305,1386989468
0.156,-0.215,-1.129,-1.298,-2.687,-12.366,1386993477
0.154,-0.214,-1.130,-1.267,-2.580,-12.290,1386997487
0.146,-0.212,-1.119,-1.389,-2.351,-11.985,1387001497
0.152,-0.217,-1.127,-2.061,-2.015,-12.107,1387005506
0.152,-0.215,-1.127,-2.412,-1.771,-11.756,1387009516
0.155,-0.222,-1.118,-3.206,-1.344,-11.603,1387013526
0.157,-0.225,-1.127,-3.282,-1.282,-11.573,1387017536
0.158,-0.235,-1.119,-3.588,-0.992,-11.634,1387021545
0.159,-0.231,-1.125,-3.863,-0.565,-11.573,1387025555
0.159,-0.232,-1.109,-4.382,-0.366,-11.130,1387029564
0.149,-0.237,-1.111,-5.130,-0.214,-10.672,1387033573
0.157,-0.243,-1.120,-5.939,-0.198,-9.863,1387037583
0.166,-0.248,-1.094,-6.198,-0.534,-10.076,1387041594
0.170,-0.238,-1.097,-6.412,-0.763,-10.031,1387045605
0.163,-0.235,-1.097,-6.382,-0.763,-9.969,1387049614
0.163,-0.228,-1.089,-6.611,-1.038,-9.817,1387053623
0.159,-0.229,-1.101,-6.031,-0.443,-9.481,1387057632
0.145,-0.240,-1.092,-6.015,-0.656,-8.885,1387061642
0.143,-0.229,-1.096,-5.802,-0.611,-8.672,1387065652
0.150,-0.221,-1.105,-5.710,-0.687,-8.214,1387069663
0.143,-0.225,-1.103,-4.947,-1.130,-7.924,1387073672
0.146,-0.222,-1.104,-4.275,-0.779,-7.557,1387077682
0.139,-0.223,-1.101,-4.015,-0.305,-7.313,1387081692
0.129,-0.224,-1.113,-3.802,0.015,-6.901,1387085711
0.134,-0.223,-1.118,-4.504,0.290,-6.427,1387089721
0.129,-0.223,-1.116,-5.420,0.458,-6.061,1387093731
0.130,-0.226,-1.116,-5.878,1.252,-5.679,1387097741
0.131,-0.224,-1.121,-6.031,1.740,-5.695,1387101751
0.134,-0.214,-1.114,-6.366,2.504,-5.618,1387105768
0.138,-0.207,-1.122,-6.534,3.023,-5.740,1387109778
0.132,-0.207,-1.117,-7.145,3.847,-5.542,1387113788
0.133,-0.196,-1.115,-7.435,4.580,-5.053,1387117798
0.123,-0.187,-1.113,-7.786,4.992,-5.023,1387121809
0.135,-0.195,-1.112,-7.863,5.573,-4.947,1387125819
0.135,-0.194,-1.107,-7.863,5.985,-5.084,1387129828
0.144,-0.192,-1.114,-7.939,6.260,-5.374,1387133838
0.144,-0.188,-1.112,-7.679,6.641,-5.313,1387137847
0.144,-0.194,-1.106,-7.634,7.023,-5.359,1387141859
0.147,-0.190,-1.108,-7.786,6.733,-5.344,1387145869
0.155,-0.190,-1.104,-7.618,6.992,-5.450,1387149879
0.157,-0.194,-1.097,-7.466,6.489,-5.924,1387153889
0.157,-0.189,-1.101,-6.855,6.443,-6.366,1387157899
0.165,-0.191,-1.099,-6.794,6.183,-6.641,1387161909
0.165,-0.193,-1.109,-6.260,5.771,-7.053,1387165918
0.162,-0.195,-1.098,-6.153,5.618,-7.145,1387169929
0.164,-0.198,-1.090,-6.137,4.779,-7.527,1387173938
0.168,-0.202,-1.094,-6.244,4.519,-7.878,1387177948
0.165,-0.202,-1.090,-6.290,4.061,-8.366,1387181958
0.167,-0.201,-1.095,-6.366,3.649,-8.763,1387185967
0.162,-0.202,-1.094,-6.168,3.481,-9.176,1387189977
0.162,-0.200,-1.092,-6.198,3.649,-9.298,1387193987
0.156,-0.196,-1.096,-5.954,3.786,-9.893,1387197997
0.143,-0.192,-1.088,-5.695,4.031,-9.985,1387202007
0.146,-0.195,-1.085,-5.664,4.427,-9.832,1387206025
0.146,-0.193,-1.086,-5.496,5.176,-9.939,1387210035
0.151,-0.194,-1.082,-5.603,5.344,-9.802,1387214045
0.144,-0.192,-1.084,-4.977,5.618,-9.954,1387218054
0.148,-0.189,-1.073,-4.809,5.588,-9.832,1387222064
0.151,-0.184,-1.074,-4.351,5.679,-9.557,1387226082
0.151,-0.190,-1.077,-4.244,5.618,-9.374,1387230093
0.160,-0.188,-1.075,-4.412,4.687,-9.374,1387234102
0.160,-0.188,-1.083,-4.489,4.153,-9.511,1387238111
0.156,-0.193,-1.074,-4.489,3.069,-9.481,1387242121
0.165,-0.194,-1.075,-4.611,1.802,-9.389,1387246137
0.176,-0.192,-1.083,-4.550,0.534,-9.328,1387250148
0.178,-0.186,-1.082,-4.702,-0.336,-9.252,1387254157
0.172,-0.187,-1.078,-4.718,-1.389,-9.344,1387258166
0.173,-0.184,-1.086,-4.733,-2.000,-9.450,1387262176
0.165,-0.187,-1.075,-4.763,-2.779,-9.206,1387266185
0.161,-0.185,-1.084,-4.656,-3.145,-8.962,1387270194
0.161,-0.181,-1.078,-4.321,-3.466,-8.824,1387274204
0.155,-0.181,-1.076,-4.015,-3.389,-8.672,1387278214
0.156,-0.176,-1.075,-3.359,-2.870,-8.733,1387282224
0.154,-0.181,-1.081,-2.962,-2.840,-8.504,1387286233
0.150,-0.188,-1.084,-2.748,-2.092,-8.336,1387290244
0.156,-0.188,-1.085,-2.473,-1.847,-8.336,1387294253
