acc_x,acc_y,acc_z,gyro_x,gyro_y,gyro_z,time
0.317,0.004,-1.107,-2.458,-1.191,-1.115,0
0.327,0.001,-1.115,-2.748,-1.588,-1.237,4050
0.327,0.001,-1.118,-3.069,-1.863,-1.481,8063
0.323,0.002,-1.115,-3.282,-2.473,-1.756,12074
0.321,0.000,-1.104,-3.435,-2.641,-1.557,16085
0.317,0.003,-1.111,-3.389,-2.962,-1.527,20096
0.321,0.007,-1.102,-3.710,-2.840,-1.679,24107
0.312,0.005,-1.110,-3.282,-2.611,-1.649,28118
0.312,0.009,-1.105,-3.328,-2.351,-1.420,32129
0.311,0.009,-1.103,-3.252,-2.061,-1.466,36141
0.312,0.013,-1.099,-3.008,-1.237,-1.313,40152
0.309,0.012,-1.106,-2.916,-0.458,-1.191,44163
0.304,0.010,-1.109,-2.489,0.122,-1.206,48175
0.308,0.005,-1.101,-2.550,0.763,-0.733,52186
0.307,0.010,-1.110,-2.275,1.145,-1.267,56197
0.307,0.001,-1.102,-2.168,1.710,-1.298,60209
0.315,0.004,-1.108,-2.153,1.740,-1.634,64220
0.318,0.010,-1.112,-1.924,1.847,-2.031,68231
0.316,0.003,-1.104,-1.847,1.786,-2.000,72242
0.323,0.009,-1.105,-2.092,1.450,-2.076,76254
0.330,0.006,-1.108,-2.397,1.038,-2.229,80264
0.329,-0.004,-1.108,-2.473,0.427,-2.214,84275
0.327,0.003,-1.106,-2.748,-0.336,-2.305,88286
0.319,-0.001,-1.113,-2.977,-1.206,-2.427,92297
0.325,0.002,-1.107,-3.237,-1.573,-2.412,96308
0.325,0.011,-1.116,-3.313,-1.878,-2.153,100319
0.322,0.004,-1.109,-3.298,-2.305,-2.321,104330
0.319,0.013,-1.108,-3.252,-2.275,-2.229,108342
0.306,0.006,-1.107,-3.359,-2.168,-2.153,112353
0.305,0.015,-1.107,-3.298,-1.847,-2.290,116365
0.305,0.007,-1.102,-3.160,-1.374,-2.366,120376
0.306,0.008,-1.106,-3.069,-0.901,-2.534,124387
0.300,0.018,-1.112,-2.901,-0.275,-2.626,128398
0.291,0.015,-1.106,-2.565,0.092,-2.473,132409
0.295,0.020,-1.109,-2.275,0.611,-2.366,136421
0.300,0.013,-1.107,-2.153,1.099,-2.443,140431
0.299,0.015,-1.108,-1.939,1.603,-2.305,144442
0.304,0.016,-1.106,-1.618,1.847,-2.305,148453
0.303,0.016,-1.107,-1.420,2.198,-1.908,152464
0.302,0.010,-1.113,-1.282,2.305,-1.679,156475
0.300,0.015,-1.105,-1.573,2.244,-1.527,160486
0.308,0.011,-1.113,-1.527,2.168,-1.450,164497
0.309,0.006,-1.102,-1.878,1.771,-1.481,168507
0.312,-0.001,-1.101,-2.031,1.557,-1.221,172518
0.313,0.004,-1.101,-2.260,0.962,-1.405,176529
0.316,0.001,-1.097,-2.473,0.580,-1.466,180540
0.325,0.008,-1.102,-2.519,0.137,-1.573,184551
0.317,0.008,-1.105,-2.534,-0.656,-1.817,188561
0.313,0.006,-1.103,-2.855,-1.221,-1.969,192572
0.316,0.013,-1.104,-2.840,-1.618,-2.397,196583
0.309,0.011,-1.108,-2.702,-1.924,-2.260,200594
0.314,0.013,-1.115,-2.824,-2.229,-2.550,204605
0.306,0.007,-1.103,-2.870,-2.458,-2.641,208616
0.314,0.003,-1.110,-2.611,-2.321,-2.473,212627
0.301,0.012,-1.109,-2.718,-2.015,-2.275,216638
0.293,0.004,-1.108,-2.733,-1.588,-2.336,220649
0.290,0.012,-1.111,-2.733,-1.130,-2.198,224660
0.288,0.005,-1.107,-2.779,-0.580,-1.939,228672
0.295,0.005,-1.105,-2.809,-0.046,-1.542,232691
0.298,0.008,-1.111,-2.580,0.412,-1.695,236702
0.290,0.011,-1.109,-2.565,1.099,-1.634,240713
0.297,0.010,-1.116,-2.473,1.344,-1.450,244724
0.290,0.013,-1.110,-2.382,1.481,-1.496,248735
0.301,0.009,-1.104,-2.214,1.634,-1.298,252746
0.307,0.008,-1.104,-1.969,1.786,-1.313,256757
0.306,0.008,-1.111,-1.817,1.649,-1.160,260768
0.312,0.013,-1.119,-1.603,1.374,-1.099,264779
0.304,0.011,-1.117,-1.740,1.176,-1.038,268792
0.305,0.014,-1.112,-1.359,0.809,-0.962,272803
0.314,0.007,-1.118,-1.542,0.641,-0.870,276814
0.308,0.009,-1.124,-1.802,0.122,-1.008,280825
0.315,0.002,-1.118,-2.214,-0.214,-1.053,284836
0.315,0.005,-1.109,-2.809,-0.656,-0.992,288848
0.312,-0.007,-1.103,-3.099,-0.870,-1.023,292858
0.309,-0.001,-1.116,-3.771,-0.779,-1.267,296869
0.301,0.005,-1.108,-4.031,-0.763,-1.710,300881
0.301,-0.000,-1.110,-4.366,-0.534,-1.924,304892
0.302,0.005,-1.113,-4.672,-0.458,-2.290,308903
0.300,0.010,-1.111,-4.748,-0.321,-2.458,312913
0.302,0.011,-1.117,-4.748,-0.168,-2.687,316924
0.304,0.013,-1.108,-4.763,-0.214,-2.763,320936
0.299,0.018,-1.112,-4.504,-0.183,-2.931,324947
0.301,0.022,-1.108,-4.153,-0.351,-2.504,328958
0.309,0.021,-1.104,-3.908,-0.198,-2.321,332978
0.311,0.016,-1.109,-3.450,-0.244,-2.214,336989
0.309,0.020,-1.109,-3.359,-0.153,-1.649,341000
0.304,0.024,-1.103,-2.840,-0.031,-1.618,345011
0.307,0.017,-1.104,-2.687,0.061,-1.344,349022
0.306,0.015,-1.103,-2.595,0.031,-1.099,353043
0.302,0.015,-1.118,-2.427,0.168,-0.809,357055
0.310,0.012,-1.110,-2.382,0.107,-1.084,361065
0.309,0.014,-1.100,-2.550,0.061,-1.099,365076
0.304,0.012,-1.109,-2.550,0.061,-1.221,369087
0.304,0.008,-1.113,-2.519,0.351,-1.389,373101
0.303,0.012,-1.109,-2.702,0.015,-1.466,377112
0.307,0.011,-1.114,-2.916,0.351,-1.740,381123
0.305,0.016,-1.106,-3.069,0.443,-1.740,385134
0.314,0.013,-1.104,-3.298,0.305,-1.985,389145
0.308,0.013,-1.114,-3.221,0.229,-2.046,393157
0.307,0.006,-1.110,-3.603,-0.168,-2.000,397168
0.308,0.005,-1.104,-3.664,-0.305,-1.954,401179
0.314,0.008,-1.112,-3.847,-0.626,-1.893,405190
0.315,0.013,-1.110,-3.985,-0.794,-1.939,409201
0.315,0.014,-1.109,-4.244,-1.084,-1.664,413222
0.317,0.010,-1.107,-4.244,-1.237,-1.756,417233
0.315,0.008,-1.103,-4.458,-1.481,-1.649,421244
0.319,0.007,-1.112,-4.336,-1.282,-1.618,425255
0.320,0.007,-1.108,-4.198,-1.542,-1.710,429266
0.315,0.009,-1.104,-4.321,-1.725,-1.542,433287
0.316,0.014,-1.106,-3.863,-1.664,-1.618,437298
0.323,0.015,-1.096,-3.542,-1.634,-1.466,441309
0.334,0.008,-1.110,-3.145,-1.664,-1.863,445320
0.339,0.002,-1.106,-2.916,-1.939,-1.771,449331
0.345,0.008,-1.095,-3.084,-2.305,-1.908,453349
0.356,0.006,-1.097,-2.702,-2.702,-1.542,457360
0.351,-0.001,-1.092,-2.687,-3.115,-1.527,461371
0.354,-0.002,-1.093,-2.519,-3.679,-1.664,465383
0.360,-0.002,-1.091,-2.489,-4.031,-1.542,469394
0.371,-0.000,-1.092,-2.580,-5.069,-1.588,473405
0.374,0.002,-1.083,-2.534,-5.557,-1.649,477416
0.382,0.000,-1.084,-2.412,-6.229,-1.359,481427
0.396,0.004,-1.086,-2.122,-7.069,-1.023,485438
0.412,0.003,-1.084,-2.275,-7.878,-0.473,489449
0.419,0.005,-1.078,-2.366,-8.779,-0.214,493460
0.432,0.003,-1.076,-2.122,-9.756,0.107,497472
0.455,0.019,-1.079,-2.351,-11.099,0.519,501483
0.478,0.020,-1.071,-2.885,-12.550,1.267,505495
0.513,0.017,-1.064,-3.771,-14.809,2.214,509506
0.531,0.024,-1.051,-4.092,-16.702,2.015,513516
0.543,0.028,-1.047,-4.458,-18.244,2.275,517527
0.542,0.040,-1.034,-4.458,-19.527,2.458,521538
0.555,0.045,-1.030,-4.244,-20.366,3.038,525549
0.570,0.053,-1.012,-4.580,-20.672,3.237,529560
0.579,0.058,-1.005,-4.733,-20.336,3.267,533571
0.588,0.061,-0.996,-4.748,-19.817,3.359,537582
0.602,0.074,-0.990,-4.473,-18.718,3.634,541593
0.605,0.090,-0.980,-3.389,-16.977,3.542,545604
0.604,0.110,-0.963,-2.275,-14.931,3.588,549615
0.623,0.117,-0.954,-0.870,-12.687,3.496,553635
0.632,0.129,-0.944,0.504,-10.290,3.115,557647
0.639,0.141,-0.939,1.985,-8.046,2.702,561658
0.646,0.143,-0.921,3.481,-5.344,2.092,565669
0.657,0.140,-0.904,5.221,-2.794,1.802,569680
0.681,0.132,-0.901,6.931,-0.046,1.282,573701
0.695,0.131,-0.891,8.656,1.969,0.855,577712
0.712,0.127,-0.876,10.229,3.527,0.336,581723
0.738,0.117,-0.880,12.198,4.565,-0.504,585734
0.750,0.104,-0.872,14.122,4.931,-0.947,589745
0.763,0.102,-0.880,16.473,4.489,-1.649,593755
0.775,0.095,-0.881,18.489,3.130,-2.809,597766
0.787,0.092,-0.894,20.656,0.580,-4.260,601777
0.807,0.088,-0.899,22.046,-2.183,-5.740,605788
0.796,0.080,-0.899,23.573,-5.695,-7.038,609800
0.787,0.066,-0.901,24.275,-8.672,-7.053,613810
0.784,0.051,-0.912,25.985,-11.573,-9.298,617820
0.770,0.069,-0.903,26.519,-15.328,-11.573,621831
0.743,0.053,-0.918,27.130,-18.504,-13.649,625842
0.719,0.051,-0.913,27.084,-21.038,-15.679,629853
0.706,0.035,-0.922,26.534,-22.092,-17.252,633873
0.678,0.034,-0.913,25.557,-21.893,-19.115,637886
0.661,0.022,-0.912,24.260,-20.916,-21.298,641896
0.631,0.013,-0.918,23.618,-19.099,-23.603,645907
0.608,0.016,-0.921,22.901,-16.214,-26.336,649919
0.583,0.016,-0.915,22.702,-12.137,-29.038,653930
0.563,0.035,-0.912,23.023,-7.191,-32.031,657941
0.552,0.032,-0.933,23.328,-1.466,-34.794,661952
0.542,0.030,-0.925,24.580,4.092,-37.634,665963
0.542,0.007,-0.930,25.893,9.481,-40.366,669974
0.559,0.002,-0.936,28.061,14.336,-42.901,673985
0.572,-0.009,-0.952,31.130,18.656,-45.527,677997
0.587,-0.003,-0.975,34.550,21.985,-48.198,682008
0.591,0.010,-0.999,38.000,24.168,-50.550,686020
0.584,0.026,-1.020,41.588,25.450,-52.718,690031
0.574,0.031,-1.037,45.069,25.939,-55.084,694042
0.570,0.015,-1.071,47.771,25.420,-57.466,698054
0.568,-0.004,-1.081,49.557,23.878,-59.710,702065
0.554,-0.025,-1.084,51.115,22.977,-61.649,706077
0.552,-0.040,-1.114,51.725,22.000,-62.244,710087
0.542,-0.062,-1.122,51.038,21.145,-62.397,714098
0.527,-0.082,-1.137,50.000,20.076,-61.908,718105
0.513,-0.085,-1.135,48.321,19.695,-60.870,722116
0.499,-0.092,-1.147,46.611,18.763,-59.634,726127
0.484,-0.102,-1.143,44.550,18.137,-58.519,730138
0.464,-0.103,-1.148,42.626,17.710,-57.023,734149
0.450,-0.107,-1.162,40.214,17.679,-55.893,738156
0.422,-0.118,-1.176,38.916,17.527,-55.176,742167
0.392,-0.124,-1.174,37.939,18.076,-54.855,746178
0.362,-0.142,-1.164,37.206,18.855,-55.038,750189
0.336,-0.156,-1.164,36.427,19.115,-55.710,754200
0.326,-0.155,-1.165,35.328,20.061,-57.053,758212
0.317,-0.147,-1.145,34.794,21.298,-58.794,762222
0.301,-0.138,-1.144,34.397,22.427,-60.290,766233
0.285,-0.124,-1.146,34.550,24.061,-62.305,770244
0.269,-0.116,-1.148,34.595,25.496,-63.786,774255
0.262,-0.117,-1.161,34.947,27.191,-65.863,778267
0.243,-0.119,-1.158,35.038,28.718,-67.603,782278
0.241,-0.121,-1.167,35.145,29.893,-69.344,786290
0.226,-0.131,-1.160,34.840,30.901,-70.366,790300
0.228,-0.131,-1.178,33.847,31.359,-70.473,794311
0.224,-0.136,-1.181,32.977,31.450,-70.107,798322
0.233,-0.127,-1.190,32.336,30.870,-69.634,802333
0.232,-0.120,-1.188,31.756,30.031,-69.084,806344
0.233,-0.127,-1.205,31.282,29.130,-68.092,810356
0.223,-0.133,-1.204,30.412,27.863,-66.626,814367
0.216,-0.141,-1.212,29.649,26.290,-65.053,818378
0.206,-0.143,-1.218,29.023,24.687,-63.069,822389
0.190,-0.147,-1.220,28.244,22.824,-60.931,826400
0.195,-0.150,-1.224,28.229,21.389,-58.183,830412
0.191,-0.158,-1.232,28.076,19.634,-55.389,834423
0.185,-0.169,-1.240,27.969,17.771,-52.763,838433
0.179,-0.185,-1.240,27.893,16.443,-50.321,842444
0.170,-0.197,-1.237,27.282,14.870,-47.954,846455
0.165,-0.209,-1.245,26.992,13.099,-45.802,850466
0.169,-0.206,-1.242,26.947,12.046,-43.176,854477
0.172,-0.196,-1.229,26.992,10.534,-40.901,858488
0.180,-0.194,-1.238,27.725,9.176,-39.206,862500
0.178,-0.189,-1.230,28.687,8.366,-37.908,866511
0.177,-0.188,-1.234,29.191,7.328,-37.359,870522
0.167,-0.187,-1.234,30.351,6.794,-37.069,874533
0.156,-0.188,-1.229,30.748,6.153,-37.160,878544
0.146,-0.191,-1.230,30.916,6.305,-37.298,882555
0.135,-0.183,-1.220,31.603,6.687,-38.092,886566
0.130,-0.183,-1.225,32.107,7.573,-39.130,890578
0.123,-0.195,-1.241,32.489,8.397,-40.122,894589
0.112,-0.210,-1.231,32.092,9.313,-41.023,898601
0.100,-0.238,-1.249,31.389,10.595,-41.985,902611
0.089,-0.259,-1.253,30.153,11.374,-42.458,906622
0.087,-0.277,-1.260,28.626,12.290,-42.656,910633
0.093,-0.303,-1.263,26.443,13.130,-42.809,914644
0.102,-0.318,-1.276,24.168,13.176,-42.260,918655
0.113,-0.327,-1.257,21.695,12.885,-42.046,922676
0.110,-0.329,-1.263,19.008,12.351,-41.160,926687
0.115,-0.328,-1.252,16.290,11.053,-40.214,930698
0.122,-0.316,-1.261,13.771,9.695,-39.573,934709
0.125,-0.304,-1.253,11.313,8.275,-38.809,938721
0.123,-0.294,-1.241,9.313,6.427,-37.985,942734
0.125,-0.277,-1.238,7.679,4.824,-37.267,946745
0.122,-0.276,-1.245,6.168,3.252,-36.611,950756
0.124,-0.262,-1.236,4.916,1.786,-35.863,954767
0.125,-0.257,-1.233,4.214,0.214,-35.221,958779
0.125,-0.249,-1.228,3.527,-1.588,-34.534,962790
0.129,-0.247,-1.232,3.344,-3.130,-33.863,966801
0.125,-0.245,-1.223,2.885,-4.595,-33.252,970813
0.127,-0.255,-1.216,2.763,-5.679,-33.008,974824
0.109,-0.246,-1.210,2.198,-6.046,-32.321,978835
0.108,-0.246,-1.197,1.863,-6.031,-31.435,982845
0.097,-0.242,-1.197,1.832,-5.725,-30.534,986856
0.087,-0.238,-1.199,2.031,-4.916,-29.695,990867
0.091,-0.243,-1.187,2.244,-3.679,-28.840,994879
0.103,-0.243,-1.185,2.244,-2.519,-28.458,998890
0.101,-0.247,-1.175,2.092,-0.947,-27.954,1002901
0.102,-0.250,-1.173,1.679,0.336,-27.221,1006911
0.102,-0.254,-1.169,0.962,1.557,-26.916,1010922
0.106,-0.244,-1.163,0.427,2.595,-26.458,1014933
0.111,-0.227,-1.157,0.382,3.511,-26.076,1018944
0.120,-0.215,-1.163,0.351,4.061,-25.908,1022965
0.132,-0.207,-1.157,0.015,4.947,-25.588,1026976
0.145,-0.206,-1.149,-0.748,5.176,-25.405,1030987
0.141,-0.209,-1.151,-1.725,5.267,-24.885,1034998
0.146,-0.210,-1.159,-2.733,5.023,-24.351,1039009
0.153,-0.205,-1.142,-4.153,4.443,-23.160,1043030
0.172,-0.201,-1.135,-5.160,3.481,-22.122,1047041
0.186,-0.192,-1.137,-6.076,2.092,-21.038,1051052
0.197,-0.188,-1.143,-6.656,0.733,-20.122,1055063
0.207,-0.171,-1.127,-7.130,-1.099,-19.099,1059074
0.210,-0.174,-1.135,-7.435,-2.626,-18.336,1063086
0.218,-0.173,-1.119,-7.573,-4.366,-17.359,1067097
0.223,-0.170,-1.115,-7.435,-6.351,-16.626,1071108
0.215,-0.161,-1.112,-7.450,-7.710,-16.092,1075119
0.209,-0.146,-1.104,-6.809,-8.977,-15.893,1079130
0.202,-0.140,-1.098,-6.382,-9.954,-15.313,1083140
0.194,-0.126,-1.104,-5.878,-10.046,-15.145,1087151
0.195,-0.122,-1.096,-5.282,-9.893,-15.084,1091162
0.194,-0.121,-1.095,-4.504,-8.931,-15.145,1095174
0.183,-0.114,-1.090,-4.000,-8.076,-14.763,1099185
0.183,-0.112,-1.094,-3.221,-6.443,-14.565,1103205
0.182,-0.116,-1.083,-2.962,-4.595,-13.954,1107215
0.184,-0.118,-1.095,-2.626,-2.702,-13.588,1111226
0.185,-0.121,-1.089,-2.626,-0.824,-12.962,1115237
0.191,-0.130,-1.087,-2.901,0.611,-12.382,1119248
0.214,-0.134,-1.084,-3.237,2.214,-11.389,1123268
0.214,-0.132,-1.092,-3.359,3.023,-10.840,1127279
0.232,-0.126,-1.086,-3.573,3.206,-10.336,1131290
0.250,-0.126,-1.099,-4.076,3.542,-9.511,1135301
0.255,-0.136,-1.087,-4.397,3.038,-9.038,1139312
0.267,-0.124,-1.092,-4.702,2.198,-8.290,1143332
0.266,-0.129,-1.090,-5.282,0.992,-7.725,1147342
0.285,-0.125,-1.087,-5.649,-0.656,-7.252,1151353
0.287,-0.124,-1.093,-5.863,-2.107,-6.718,1155364
0.289,-0.110,-1.098,-6.519,-3.695,-6.229,1159375
0.292,-0.107,-1.098,-6.366,-4.885,-6.061,1163386
0.285,-0.102,-1.094,-6.244,-6.061,-5.710,1167397
0.294,-0.092,-1.094,-6.198,-6.718,-5.557,1171408
0.284,-0.094,-1.081,-6.183,-7.221,-5.206,1175419
0.273,-0.093,-1.087,-6.122,-7.023,-4.947,1179430
0.271,-0.096,-1.089,-5.924,-6.565,-4.656,1183442
0.259,-0.092,-1.082,-5.344,-5.695,-4.473,1187453
0.260,-0.095,-1.084,-5.298,-4.672,-3.786,1191464
0.254,-0.093,-1.091,-5.053,-3.588,-3.847,1195475
0.254,-0.088,-1.078,-5.084,-2.000,-3.725,1199486
0.248,-0.097,-1.080,-4.931,-0.534,-3.313,1203497
0.255,-0.099,-1.078,-4.519,0.763,-3.389,1207507
0.251,-0.094,-1.082,-4.611,2.153,-3.038,1211518
0.260,-0.095,-1.073,-4.611,2.885,-2.824,1215529
0.276,-0.095,-1.077,-4.748,3.466,-2.275,1219540
0.291,-0.093,-1.072,-4.901,3.985,-1.740,1223555
0.298,-0.089,-1.071,-5.099,3.985,-1.160,1227567
0.307,-0.098,-1.087,-5.130,3.282,-0.458,1231577
0.329,-0.090,-1.084,-5.359,2.672,0.489,1235588
0.329,-0.094,-1.081,-5.664,1.542,1.267,1239600
0.331,-0.099,-1.080,-5.557,0.244,2.153,1243619
0.332,-0.094,-1.073,-5.603,-0.977,2.870,1247631
0.332,-0.084,-1.077,-5.557,-1.924,3.557,1251642
0.333,-0.084,-1.083,-5.588,-2.809,3.893,1255653
0.330,-0.086,-1.070,-5.313,-3.557,4.351,1259664
0.333,-0.077,-1.072,-4.962,-3.893,4.580,1263685
0.324,-0.084,-1.074,-4.382,-4.244,4.672,1267697
0.324,-0.077,-1.067,-4.046,-4.061,4.977,1271708
0.313,-0.075,-1.071,-3.267,-3.786,5.099,1275719
0.322,-0.080,-1.076,-2.626,-3.420,5.298,1279730
0.313,-0.077,-1.073,-2.153,-2.748,5.359,1283743
0.319,-0.077,-1.083,-1.618,-1.664,5.374,1287754
0.318,-0.077,-1.074,-0.947,-0.901,5.298,1291765
0.322,-0.078,-1.071,-0.672,0.092,5.511,1295777
0.316,-0.084,-1.071,-0.382,1.115,5.618,1299788
0.322,-0.089,-1.072,-0.382,1.908,5.710,1303800
0.329,-0.091,-1.083,-0.412,2.458,5.649,1307810
0.328,-0.102,-1.083,-0.321,2.840,5.817,1311821
0.328,-0.104,-1.088,-0.458,3.038,5.817,1315832
0.342,-0.104,-1.082,-0.687,2.733,5.985,1319843
0.347,-0.113,-1.086,-0.840,2.565,5.939,1323864
0.353,-0.114,-1.079,-1.435,2.076,5.847,1327875
0.364,-0.118,-1.087,-1.634,1.420,5.573,1331886
0.361,-0.111,-1.078,-2.214,0.519,5.405,1335897
0.364,-0.111,-1.089,-2.351,-0.214,4.855,1339916
0.353,-0.106,-1.083,-2.931,-0.870,4.733,1343927
0.360,-0.109,-1.083,-3.130,-1.450,4.595,1347938
0.362,-0.109,-1.086,-3.374,-1.664,4.672,1351949
0.357,-0.103,-1.088,-3.603,-2.183,4.565,1355960
0.361,-0.096,-1.091,-3.954,-2.397,4.458,1359971
0.357,-0.099,-1.081,-4.031,-2.656,4.504,1363982
0.358,-0.095,-1.090,-4.382,-2.763,4.611,1367993
0.355,-0.097,-1.091,-4.366,-2.901,4.519,1372004
0.360,-0.096,-1.080,-4.489,-3.176,4.550,1376015
0.361,-0.098,-1.086,-4.519,-3.267,4.443,1380026
0.361,-0.084,-1.085,-4.305,-3.237,4.321,1384037
0.363,-0.088,-1.084,-4.260,-3.008,4.015,1388048
0.359,-0.086,-1.088,-3.802,-2.687,3.832,1392059
0.361,-0.084,-1.091,-3.191,-2.076,3.344,1396070
0.357,-0.085,-1.081,-2.809,-1.511,2.885,1400082
0.355,-0.082,-1.088,-2.244,-0.763,2.748,1404093
0.359,-0.094,-1.081,-1.863,0.168,2.702,1408105
0.358,-0.095,-1.097,-1.527,0.840,2.473,1412116
0.372,-0.099,-1.090,-1.618,1.252,2.290,1416127
0.367,-0.105,-1.098,-1.344,1.588,2.214,1420138
0.370,-0.113,-1.093,-1.435,1.573,2.092,1424149
0.370,-0.105,-1.108,-1.573,1.695,2.107,1428156
0.380,-0.108,-1.095,-1.893,1.496,1.954,1432167
0.373,-0.098,-1.110,-1.893,1.374,1.908,1436178
0.371,-0.104,-1.102,-2.305,1.084,1.985,1440189
0.381,-0.114,-1.097,-2.336,0.641,1.588,1444200
0.376,-0.114,-1.112,-2.489,0.718,1.603,1448212
0.378,-0.112,-1.099,-2.794,0.458,1.176,1452222
0.375,-0.114,-1.108,-3.481,0.321,0.992,1456233
0.377,-0.110,-1.103,-3.679,0.183,0.702,1460244
0.374,-0.104,-1.104,-4.290,-0.168,0.718,1464255
0.378,-0.100,-1.100,-4.534,-0.321,0.473,1468267
0.380,-0.104,-1.097,-4.947,-0.641,0.489,1472278
0.381,-0.104,-1.091,-5.237,-1.298,0.550,1476290
0.384,-0.098,-1.100,-5.496,-1.450,0.412,1480300
0.387,-0.084,-1.099,-5.542,-1.557,0.260,1484311
0.378,-0.085,-1.092,-5.298,-1.771,0.076,1488322
0.371,-0.082,-1.094,-4.702,-1.771,-0.229,1492333
0.368,-0.076,-1.095,-4.305,-1.634,-0.916,1496344
0.369,-0.076,-1.098,-3.847,-1.221,-1.374,1500356
0.369,-0.082,-1.107,-3.221,-1.130,-1.725,1504367
0.364,-0.086,-1.090,-2.824,-0.718,-2.244,1508378
0.355,-0.085,-1.098,-1.924,-0.244,-2.779,1512389
0.361,-0.081,-1.102,-1.542,0.260,-3.099,1516400
0.358,-0.093,-1.102,-1.206,0.565,-3.282,1520412
0.354,-0.089,-1.101,-1.008,0.779,-3.389,1524423
0.356,-0.101,-1.104,-1.069,1.328,-3.603,1528433
0.363,-0.096,-1.102,-1.084,1.481,-3.710,1532444
0.364,-0.092,-1.092,-1.191,1.466,-3.756,1536455
0.364,-0.094,-1.102,-1.420,1.282,-3.710,1540466
0.362,-0.098,-1.099,-1.542,0.992,-3.695,1544477
0.371,-0.102,-1.094,-1.817,0.519,-3.481,1548488
0.367,-0.101,-1.097,-2.382,-0.046,-3.252,1552500
0.370,-0.100,-1.099,-2.763,-0.779,-3.160,1556511
0.364,-0.104,-1.100,-3.206,-1.237,-2.748,1560522
0.363,-0.109,-1.100,-3.527,-1.863,-2.504,1564533
0.353,-0.105,-1.098,-3.740,-2.214,-2.336,1568544
0.350,-0.101,-1.104,-4.107,-2.519,-2.015,1572555
0.347,-0.101,-1.102,-4.382,-2.305,-1.969,1576566
0.335,-0.106,-1.104,-4.351,-2.214,-2.015,1580578
0.338,-0.099,-1.097,-4.519,-1.588,-2.137,1584589
0.331,-0.105,-1.098,-4.763,-1.053,-2.031,1588601
0.337,-0.103,-1.099,-4.779,-0.519,-2.061,1592611
0.336,-0.101,-1.101,-4.992,0.290,-2.229,1596622
0.334,-0.095,-1.091,-5.053,0.702,-2.443,1600633
0.340,-0.096,-1.087,-5.389,1.252,-2.305,1604644
0.350,-0.089,-1.090,-5.282,1.389,-2.626,1608655
0.356,-0.075,-1.073,-5.191,1.405,-2.687,1612676
0.360,-0.079,-1.085,-5.237,1.328,-2.611,1616687
0.359,-0.083,-1.081,-4.977,0.885,-2.901,1620698
0.363,-0.083,-1.072,-4.672,0.519,-2.885,1624709
0.365,-0.088,-1.076,-4.229,0.061,-3.069,1628721
0.363,-0.090,-1.069,-3.939,-0.229,-2.916,1632734
0.363,-0.088,-1.066,-3.573,-0.885,-3.237,1636745
0.357,-0.087,-1.075,-3.313,-1.191,-2.977,1640756
0.349,-0.096,-1.075,-3.115,-1.450,-3.176,1644767
0.347,-0.096,-1.083,-2.794,-1.130,-2.733,1648779
0.335,-0.098,-1.087,-2.702,-1.069,-2.290,1652790
0.341,-0.104,-1.078,-2.855,-0.733,-1.924,1656801
0.339,-0.106,-1.084,-2.718,0.015,-1.786,1660813
0.335,-0.101,-1.080,-3.115,0.321,-1.511,1664824
0.337,-0.106,-1.079,-3.008,0.855,-1.069,1668835
0.339,-0.094,-1.075,-2.763,1.206,-0.473,1672845
0.345,-0.087,-1.078,-2.763,1.252,-0.198,1676856
0.349,-0.082,-1.069,-2.565,1.328,-0.427,1680867
0.348,-0.087,-1.073,-2.260,0.870,-0.321,1684879
0.355,-0.086,-1.085,-2.198,0.565,-0.702,1688890
0.354,-0.089,-1.082,-1.832,0.305,-0.885,1692900
0.352,-0.091,-1.075,-1.466,-0.382,-1.008,1696911
0.346,-0.096,-1.083,-1.176,-0.489,-1.328,1700922
0.346,-0.099,-1.079,-1.130,-0.366,-1.649,1704933
0.338,-0.092,-1.079,-0.977,-0.336,-2.076,1708944
0.321,-0.100,-1.084,-0.962,0.046,-2.382,1712965
0.325,-0.106,-1.079,-1.191,0.458,-2.794,1716976
0.323,-0.102,-1.077,-1.420,1.069,-2.687,1720988
0.323,-0.098,-1.085,-1.893,1.832,-2.931,1724998
0.326,-0.097,-1.083,-2.305,2.168,-3.023,1729009
0.333,-0.096,-1.090,-2.656,2.641,-3.053,1733030
0.344,-0.094,-1.083,-2.641,2.687,-2.992,1737041
0.344,-0.097,-1.088,-3.023,2.550,-3.115,1741052
0.349,-0.095,-1.081,-3.160,1.771,-3.008,1745063
0.356,-0.091,-1.075,-3.282,1.252,-2.870,1749074
0.365,-0.084,-1.083,-3.313,0.260,-2.748,1753086
0.368,-0.087,-1.080,-2.992,-0.641,-2.672,1757097
0.368,-0.097,-1.083,-3.053,-1.557,-2.366,1761108
0.366,-0.098,-1.089,-2.916,-3.023,-1.802,1765119
0.363,-0.097,-1.092,-2.443,-3.893,-1.420,1769130
0.358,-0.096,-1.086,-2.489,-4.504,-0.870,1773140
0.352,-0.091,-1.089,-2.229,-4.824,-0.366,1777151
0.357,-0.094,-1.084,-1.878,-4.565,0.260,1781162
0.341,-0.090,-1.097,-1.634,-4.244,0.748,1785174
0.337,-0.089,-1.092,-1.053,-3.725,0.992,1789185
0.326,-0.092,-1.083,-1.023,-2.733,0.947,1793205
0.330,-0.090,-1.103,-0.718,-2.031,0.992,1797215
0.334,-0.092,-1.085,-0.519,-0.977,0.550,1801226
0.327,-0.088,-1.083,-0.229,0.046,0.382,1805237
0.333,-0.080,-1.078,-0.031,0.855,0.015,1809248
0.337,-0.083,-1.086,0.092,1.786,-0.046,1813268
0.345,-0.087,-1.094,0.305,2.275,-0.382,1817279
0.344,-0.083,-1.083,0.534,2.641,-0.473,1821290
0.356,-0.093,-1.094,0.427,2.718,-0.626,1825301
0.359,-0.100,-1.099,-0.031,2.534,-0.458,1829312
0.355,-0.103,-1.097,-0.351,2.687,-0.382,1833332
0.365,-0.097,-1.098,-0.870,2.229,-0.168,1837342
0.363,-0.101,-1.094,-1.145,1.939,0.015,1841353
0.361,-0.101,-1.103,-1.481,1.542,0.092,1845364
0.361,-0.096,-1.100,-1.908,1.527,0.061,1849375
0.356,-0.094,-1.104,-2.229,1.191,0.412,1853386
0.371,-0.098,-1.096,-2.382,0.885,0.489,1857397
0.366,-0.098,-1.092,-2.473,0.702,0.519,1861408
0.368,-0.098,-1.091,-2.595,0.290,0.687,1865419
0.372,-0.092,-1.085,-2.092,0.153,0.519,1869430
0.368,-0.087,-1.093,-1.496,0.076,0.626,1873442
0.367,-0.091,-1.097,-1.450,0.351,0.443,1877453
0.367,-0.095,-1.100,-1.221,0.183,0.412,1881464
0.362,-0.098,-1.096,-0.733,0.031,0.656,1885475
0.363,-0.103,-1.097,-0.611,0.137,0.427,1889486
0.363,-0.098,-1.091,-0.321,0.244,0.595,1893497
0.361,-0.100,-1.099,-0.275,0.351,0.687,1897507
0.365,-0.098,-1.094,-0.290,0.687,0.427,1901518
0.361,-0.098,-1.089,-0.351,0.672,0.290,1905529
0.364,-0.091,-1.087,-0.580,0.855,0.290,1909540
0.365,-0.094,-1.094,-0.855,1.252,0.061,1913555
0.360,-0.099,-1.099,-0.977,1.405,-0.214,1917567
0.359,-0.091,-1.101,-0.916,1.725,-0.489,1921577
0.363,-0.104,-1.099,-1.160,1.817,-0.702,1925588
0.369,-0.100,-1.100,-1.634,2.397,-1.038,1929600
0.368,-0.100,-1.095,-1.817,2.672,-1.481,1933619
0.375,-0.107,-1.098,-2.382,2.580,-1.740,1937631
0.372,-0.117,-1.096,-2.947,2.687,-1.740,1941642
0.372,-0.107,-1.093,-3.252,2.290,-2.107,1945653
0.380,-0.111,-1.103,-3.573,2.000,-2.000,1949664
0.381,-0.107,-1.094,-3.908,1.679,-2.198,1953685
0.371,-0.110,-1.106,-4.351,1.359,-2.260,1957697
0.375,-0.101,-1.101,-4.519,0.748,-2.244,1961708
0.377,-0.104,-1.110,-4.565,0.015,-2.366,1965719
0.376,-0.102,-1.101,-4.382,-0.336,-2.534,1969730
0.367,-0.102,-1.097,-4.397,-0.947,-2.718,1973743
0.367,-0.097,-1.102,-4.550,-1.435,-2.748,1977754
0.353,-0.097,-1.092,-4.122,-1.466,-2.962,1981765
0.351,-0.100,-1.087,-4.031,-1.710,-2.855,1985777
0.348,-0.089,-1.100,-4.000,-1.374,-3.053,1989788
0.352,-0.090,-1.093,-3.542,-1.252,-3.115,1993800
0.352,-0.094,-1.088,-2.931,-1.099,-3.099,1997811
0.350,-0.094,-1.091,-2.580,-0.763,-2.901,2001821
