acc_x,acc_y,acc_z,gyro_x,gyro_y,gyro_z,time
0.194,0.060,-1.113,-6.275,-0.687,0.092,0
0.192,0.069,-1.109,-6.000,0.015,0.473,4051
0.189,0.067,-1.111,-5.649,0.595,0.702,8067
0.190,0.069,-1.121,-5.145,1.298,1.053,12079
0.196,0.069,-1.120,-4.840,2.290,1.328,16089
0.191,0.066,-1.117,-4.397,3.084,1.298,20100
0.195,0.060,-1.115,-4.397,3.252,1.374,24111
0.198,0.058,-1.111,-4.473,3.725,1.328,28122
0.202,0.061,-1.115,-4.565,4.076,0.977,32133
0.209,0.062,-1.110,-4.870,3.740,0.870,36144
0.203,0.055,-1.111,-4.992,3.435,0.504,40155
0.206,0.061,-1.114,-5.313,2.977,0.534,44166
0.208,0.052,-1.112,-5.649,2.382,0.092,48177
0.207,0.054,-1.122,-5.893,1.725,0.092,52188
0.210,0.059,-1.122,-6.473,1.282,0.153,56200
0.207,0.067,-1.114,-6.702,0.534,0.229,60210
0.201,0.059,-1.122,-6.702,0.275,0.214,64221
0.200,0.070,-1.113,-6.595,0.290,0.137,68232
0.190,0.064,-1.111,-6.336,0.427,0.122,72243
0.199,0.067,-1.108,-5.985,0.702,0.061,76254
0.188,0.068,-1.104,-5.710,1.115,0.275,80265
0.187,0.067,-1.118,-5.450,1.786,0.595,84276
0.188,0.063,-1.115,-5.145,2.076,0.641,88287
0.189,0.063,-1.109,-5.023,2.260,0.580,92298
0.208,0.061,-1.110,-5.099,1.985,0.519,96309
0.214,0.055,-1.116,-5.237,2.183,0.656,100320
0.223,0.056,-1.117,-5.481,1.221,0.748,104331
0.220,0.054,-1.120,-5.679,0.595,0.656,108344
0.219,0.055,-1.121,-6.229,-0.122,0.504,112355
0.215,0.059,-1.111,-6.748,-0.733,0.351,116366
0.210,0.056,-1.118,-6.687,-0.763,0.275,120377
0.204,0.060,-1.117,-6.626,-0.794,-0.137,124388
0.205,0.063,-1.118,-6.351,-0.443,-0.290,128399
0.198,0.058,-1.120,-6.214,0.107,-0.244,132410
0.193,0.063,-1.111,-6.244,0.748,-0.427,136421
0.194,0.057,-1.102,-6.107,1.313,-0.244,140432
0.196,0.054,-1.105,-6.015,1.679,-0.672,144443
0.196,0.054,-1.109,-6.076,2.275,-0.504,148454
0.201,0.063,-1.113,-5.954,2.611,-0.534,152465
0.203,0.059,-1.110,-6.000,2.779,-0.275,156476
0.213,0.053,-1.112,-5.954,2.779,-0.672,160487
0.213,0.061,-1.113,-6.076,2.855,-0.550,164498
0.214,0.059,-1.104,-6.168,2.565,-0.580,168511
0.213,0.059,-1.103,-6.290,2.031,-0.519,172521
0.215,0.061,-1.101,-6.351,1.618,-0.672,176532
0.213,0.058,-1.107,-6.260,1.344,-0.824,180543
0.210,0.065,-1.096,-6.198,0.947,-0.687,184554
0.209,0.062,-1.107,-5.771,0.580,-0.824,188564
0.214,0.065,-1.106,-5.832,0.366,-0.840,192575
0.214,0.052,-1.107,-5.786,-0.046,-0.840,196586
0.218,0.057,-1.102,-5.740,-0.595,-0.992,200597
0.214,0.053,-1.107,-5.802,-0.489,-1.053,204608
0.205,0.056,-1.108,-5.725,-0.931,-0.916,208620
0.208,0.053,-1.105,-5.878,-0.855,-0.763,212630
0.203,0.062,-1.111,-6.092,-1.053,-0.702,216641
0.202,0.058,-1.109,-6.076,-0.977,-0.855,220652
0.204,0.057,-1.095,-6.519,-0.748,-0.931,224663
0.201,0.056,-1.102,-6.809,-0.092,-0.977,228674
0.195,0.059,-1.103,-7.099,-0.137,-0.977,232692
0.197,0.054,-1.104,-7.221,0.366,-0.962,236703
0.203,0.061,-1.098,-7.145,0.824,-0.992,240715
0.202,0.059,-1.112,-6.947,1.038,-0.672,244726
0.201,0.065,-1.104,-6.901,1.298,-0.534,248736
0.204,0.065,-1.100,-6.427,1.511,-0.519,252748
0.203,0.068,-1.101,-5.893,1.847,-0.061,256759
0.200,0.070,-1.109,-5.191,2.198,0.183,260770
0.197,0.067,-1.115,-4.519,2.565,0.168,264781
0.207,0.069,-1.100,-4.061,2.947,0.427,268794
0.199,0.068,-1.097,-3.725,3.191,0.290,272805
0.202,0.066,-1.097,-3.206,3.649,0.290,276816
0.199,0.065,-1.109,-2.992,4.076,0.595,280827
0.209,0.062,-1.106,-2.962,4.244,0.626,284838
0.201,0.062,-1.114,-3.038,4.458,0.534,288849
0.204,0.064,-1.108,-3.176,4.702,0.794,292859
0.207,0.060,-1.116,-3.573,4.504,0.595,296870
0.211,0.049,-1.109,-4.000,4.443,0.214,300881
0.203,0.054,-1.108,-4.397,3.802,0.198,304892
0.216,0.056,-1.107,-4.733,3.344,0.122,308904
0.212,0.062,-1.108,-5.374,2.397,0.031,312920
0.211,0.060,-1.103,-5.863,2.046,-0.229,316931
0.208,0.060,-1.099,-6.412,1.435,-0.427,320942
0.205,0.067,-1.108,-6.962,0.641,-0.702,324953
0.205,0.062,-1.104,-7.160,0.458,-0.763,328964
0.203,0.067,-1.107,-7.328,0.015,-0.412,332984
0.200,0.058,-1.108,-7.252,-0.122,-0.519,336995
0.197,0.070,-1.106,-7.130,-0.366,-0.305,341006
0.195,0.065,-1.109,-6.733,0.076,0.198,345017
0.189,0.064,-1.108,-6.626,0.000,0.412,349028
0.187,0.062,-1.117,-6.214,0.366,0.519,353049
0.185,0.073,-1.105,-5.695,1.115,0.687,357060
0.192,0.073,-1.108,-5.221,1.649,0.855,361071
0.188,0.074,-1.114,-4.565,2.443,0.718,365082
0.194,0.067,-1.108,-4.214,2.947,1.053,369093
0.198,0.071,-1.105,-3.954,3.573,1.145,373105
0.193,0.069,-1.102,-3.740,4.137,1.298,377116
0.200,0.072,-1.109,-3.450,4.443,1.405,381127
0.202,0.071,-1.103,-3.359,4.626,1.527,385138
0.201,0.073,-1.108,-3.145,5.160,1.618,389149
0.202,0.068,-1.114,-3.069,5.374,1.313,393161
0.203,0.067,-1.118,-3.145,5.664,1.344,397172
0.203,0.071,-1.112,-3.313,6.000,0.931,401183
0.211,0.069,-1.104,-3.466,5.985,0.855,405195
0.208,0.064,-1.104,-3.832,5.908,0.702,409206
0.201,0.064,-1.094,-3.878,6.000,0.626,413227
0.207,0.066,-1.095,-3.908,6.580,0.458,417237
0.214,0.071,-1.097,-4.015,5.893,0.397,421248
0.209,0.065,-1.110,-4.107,5.954,0.198,425259
0.210,0.071,-1.116,-4.153,5.389,-0.092,429270
0.217,0.065,-1.108,-4.015,4.702,-0.092,433291
0.218,0.066,-1.107,-3.863,4.015,0.107,437302
0.224,0.063,-1.114,-3.466,3.420,0.092,441313
0.215,0.065,-1.111,-2.718,2.870,0.244,445324
0.215,0.068,-1.107,-2.550,2.397,0.198,449335
0.218,0.062,-1.112,-2.366,1.756,0.168,453347
0.215,0.071,-1.096,-2.046,1.206,0.168,457358
0.218,0.068,-1.107,-1.771,1.115,0.305,461370
0.212,0.070,-1.118,-1.695,1.115,0.305,465381
0.209,0.070,-1.114,-1.481,1.038,0.168,469392
0.209,0.059,-1.106,-1.405,0.916,-0.183,473403
0.211,0.068,-1.110,-1.389,1.038,-0.275,477414
0.203,0.066,-1.113,-1.603,1.298,-0.443,481425
0.212,0.059,-1.107,-1.573,1.344,-0.382,485436
0.210,0.063,-1.112,-2.015,1.450,-0.351,489447
0.206,0.055,-1.118,-2.290,1.496,-0.321,493458
0.208,0.056,-1.117,-2.656,1.771,-0.382,497470
0.209,0.056,-1.120,-2.885,2.092,-0.718,501480
0.210,0.059,-1.123,-3.115,1.740,-0.809,505491
0.221,0.056,-1.107,-3.344,1.679,-0.748,509502
0.209,0.055,-1.123,-3.344,1.695,-0.992,513513
0.216,0.057,-1.119,-3.435,1.634,-0.840,517523
0.212,0.056,-1.115,-3.069,1.802,-0.947,521534
0.217,0.057,-1.117,-3.053,1.985,-0.870,525545
0.210,0.060,-1.115,-2.550,2.122,-0.641,529556
0.216,0.060,-1.115,-2.290,2.382,-0.580,533566
0.210,0.057,-1.116,-1.908,2.794,-0.427,537577
0.218,0.047,-1.119,-1.863,2.809,-0.260,541588
0.210,0.046,-1.113,-1.985,2.855,-0.137,545600
0.215,0.042,-1.122,-2.382,2.718,-0.046,549611
0.224,0.049,-1.112,-2.855,2.504,-0.351,553632
0.223,0.046,-1.103,-3.511,1.817,-0.427,557643
0.218,0.045,-1.114,-4.137,1.496,-0.962,561655
0.230,0.048,-1.111,-4.458,0.977,-1.176,565665
0.222,0.057,-1.104,-4.947,0.275,-1.466,569676
0.230,0.053,-1.105,-5.252,-0.321,-1.786,573696
0.229,0.054,-1.110,-5.511,-0.702,-1.832,577707
0.232,0.052,-1.115,-5.679,-1.115,-1.710,581718
0.229,0.053,-1.109,-5.557,-1.344,-1.664,585729
0.231,0.052,-1.098,-5.344,-1.359,-1.405,589740
0.226,0.062,-1.103,-5.084,-1.557,-1.267,593750
0.235,0.066,-1.095,-4.427,-1.160,-1.282,597761
0.239,0.067,-1.101,-3.863,-0.977,-1.221,601772
0.248,0.067,-1.089,-3.450,-0.534,-1.298,605783
0.245,0.075,-1.091,-2.916,-0.137,-1.344,609795
0.259,0.073,-1.089,-2.382,0.107,-1.618,613805
0.265,0.065,-1.097,-1.969,0.198,-1.939,617815
0.276,0.071,-1.093,-1.527,0.244,-1.863,621826
0.278,0.063,-1.093,-1.221,0.107,-2.122,625837
0.288,0.069,-1.104,-1.206,-0.198,-2.641,629848
0.296,0.067,-1.102,-1.023,-0.458,-2.870,633869
0.291,0.070,-1.095,-1.130,-0.504,-3.481,637880
0.298,0.067,-1.098,-1.160,-0.824,-4.092,641891
0.294,0.071,-1.103,-1.344,-0.595,-4.611,645902
0.293,0.079,-1.097,-1.435,-0.366,-5.374,649915
0.306,0.080,-1.104,-1.618,-0.214,-5.893,653926
0.313,0.081,-1.096,-2.046,0.015,-6.351,657938
0.326,0.093,-1.108,-2.153,0.046,-6.641,661949
0.334,0.098,-1.106,-2.229,0.290,-7.191,665961
0.345,0.111,-1.093,-2.443,0.183,-7.786,669971
0.360,0.119,-1.096,-2.321,-0.046,-8.031,673982
0.369,0.123,-1.096,-2.305,-0.275,-8.611,677994
0.375,0.130,-1.098,-2.046,-0.458,-8.840,682005
0.387,0.136,-1.105,-1.344,-1.176,-9.130,686017
0.392,0.141,-1.101,-0.702,-1.725,-9.649,690027
0.398,0.138,-1.109,-0.336,-2.412,-9.481,694038
0.396,0.143,-1.119,0.244,-2.687,-9.740,698049
0.401,0.139,-1.127,0.489,-3.206,-9.802,702060
0.412,0.134,-1.132,0.794,-3.740,-9.847,706071
0.419,0.133,-1.131,1.496,-4.198,-9.893,710082
0.430,0.135,-1.142,1.954,-4.275,-10.214,714093
0.439,0.125,-1.138,1.847,-4.687,-10.565,718104
0.443,0.127,-1.140,1.634,-4.794,-11.405,722115
0.448,0.123,-1.139,1.206,-4.962,-12.290,726126
0.462,0.129,-1.127,0.977,-5.084,-13.008,730138
0.470,0.136,-1.124,0.260,-5.145,-13.542,734149
0.487,0.144,-1.124,-0.656,-4.947,-14.168,738155
0.503,0.137,-1.122,-1.725,-4.809,-14.427,742167
0.509,0.151,-1.121,-2.687,-4.382,-14.840,746178
0.533,0.159,-1.119,-3.237,-3.588,-14.702,750190
0.550,0.163,-1.122,-3.160,-3.130,-15.130,754201
0.562,0.164,-1.113,-3.084,-2.626,-15.069,758212
0.564,0.174,-1.112,-1.664,-2.229,-15.435,762223
0.568,0.169,-1.125,0.031,-1.389,-16.336,766234
0.557,0.169,-1.127,2.046,-0.611,-17.313,770245
0.553,0.169,-1.127,4.305,0.641,-18.672,774256
0.555,0.160,-1.127,5.725,1.695,-20.122,778267
0.560,0.157,-1.127,7.496,2.855,-22.244,782278
0.561,0.150,-1.136,9.237,4.290,-23.969,786289
0.567,0.145,-1.133,10.275,5.420,-25.527,790300
0.568,0.138,-1.126,12.137,7.023,-26.611,794311
0.578,0.125,-1.127,13.496,8.076,-28.092,798323
0.578,0.099,-1.133,14.168,8.427,-28.901,802334
0.573,0.101,-1.125,13.450,8.626,-30.885,806345
0.589,0.108,-1.109,14.229,8.977,-34.061,810356
0.585,0.117,-1.104,13.802,9.145,-35.557,814367
0.601,0.119,-1.080,13.389,9.878,-36.443,818378
0.610,0.118,-1.075,12.824,10.611,-37.496,822389
0.617,0.117,-1.069,12.534,11.511,-37.939,826400
0.626,0.129,-1.058,12.794,12.122,-38.321,830411
0.632,0.143,-1.052,12.947,12.641,-39.557,834422
0.629,0.155,-1.049,14.366,13.298,-40.656,838433
0.630,0.160,-1.055,15.939,13.985,-42.382,842445
0.613,0.169,-1.062,17.496,14.901,-45.084,846456
0.601,0.175,-1.073,19.420,16.489,-48.168,850467
0.588,0.155,-1.078,21.710,18.153,-51.969,854478
0.558,0.131,-1.090,24.290,19.466,-56.015,858489
0.539,0.100,-1.105,26.565,21.374,-60.229,862500
0.522,0.076,-1.120,27.267,23.954,-64.565,866511
0.510,0.082,-1.121,27.267,27.176,-69.954,870523
0.508,0.067,-1.124,27.527,30.336,-75.206,874534
0.503,0.050,-1.125,27.817,33.023,-79.496,878544
0.492,0.021,-1.115,27.450,36.718,-83.023,882555
0.499,0.003,-1.112,26.061,40.412,-85.298,886566
0.507,-0.015,-1.102,24.290,43.252,-87.237,890577
0.513,-0.027,-1.094,21.939,45.618,-89.695,894588
0.521,-0.028,-1.075,18.870,46.977,-91.618,898600
0.529,-0.032,-1.074,16.168,47.893,-93.603,902611
0.544,-0.025,-1.060,14.290,47.908,-93.649,906622
0.562,-0.016,-1.059,11.863,46.443,-94.519,910633
0.586,-0.006,-1.057,9.115,42.763,-95.344,914644
0.609,-0.006,-1.051,7.130,38.244,-96.718,918655
0.618,-0.005,-1.053,5.817,32.489,-98.153,922676
0.617,-0.010,-1.050,4.947,26.198,-99.221,926688
0.601,-0.013,-1.053,4.168,19.511,-100.824,930699
0.572,-0.023,-1.069,4.794,12.824,-102.397,934710
0.558,-0.031,-1.068,5.481,6.870,-104.321,938722
0.531,-0.035,-1.072,7.053,1.084,-106.107,942734
0.496,-0.051,-1.075,8.931,-3.191,-107.863,946745
0.446,-0.058,-1.083,11.008,-5.588,-109.282,950757
0.423,-0.049,-1.096,12.550,-7.252,-109.649,954768
0.390,-0.052,-1.099,13.603,-8.229,-109.649,958779
0.365,-0.045,-1.100,14.321,-7.832,-109.710,962790
0.348,-0.042,-1.084,14.183,-6.809,-109.084,966802
0.327,-0.033,-1.088,13.969,-5.038,-107.527,970812
0.326,-0.027,-1.094,13.908,-3.023,-105.405,974823
0.332,-0.011,-1.092,13.481,-1.496,-103.481,978834
0.333,0.012,-1.096,13.588,0.443,-101.664,982844
0.336,0.026,-1.088,13.954,2.198,-100.061,986855
0.336,0.019,-1.086,14.427,3.282,-99.084,990866
0.324,0.008,-1.083,14.107,3.924,-98.931,994877
0.326,-0.003,-1.077,14.061,3.878,-100.046,998889
0.303,-0.014,-1.079,13.298,4.641,-100.931,1002899
0.279,-0.018,-1.065,12.534,5.924,-101.084,1006910
0.269,-0.019,-1.059,11.374,7.160,-101.374,1010921
0.271,-0.014,-1.056,10.626,8.733,-102.168,1014932
0.270,-0.010,-1.051,9.679,9.954,-102.962,1018943
0.264,-0.002,-1.041,9.298,10.427,-103.954,1022964
0.259,0.004,-1.042,9.756,10.870,-104.809,1026975
0.241,0.009,-1.061,12.733,10.550,-105.634,1030986
0.257,-0.024,-1.070,16.870,9.374,-106.168,1034998
0.273,-0.064,-1.095,21.542,7.252,-105.939,1039009
0.294,-0.114,-1.111,25.328,4.275,-105.603,1043030
0.297,-0.162,-1.115,28.168,1.115,-104.183,1047041
0.276,-0.195,-1.123,30.137,-1.908,-102.092,1051053
0.253,-0.211,-1.133,30.656,-4.992,-99.206,1055063
0.224,-0.215,-1.130,29.817,-8.840,-95.664,1059074
0.213,-0.195,-1.128,28.687,-11.588,-92.748,1063085
0.209,-0.171,-1.129,28.076,-13.435,-90.748,1067096
0.206,-0.149,-1.121,26.336,-14.504,-88.290,1071107
0.189,-0.121,-1.113,23.924,-14.702,-86.809,1075118
0.169,-0.106,-1.099,21.252,-14.580,-85.298,1079129
0.161,-0.096,-1.104,20.031,-14.229,-84.595,1083139
0.146,-0.076,-1.080,19.344,-12.977,-84.458,1087151
0.115,-0.051,-1.086,18.931,-11.771,-84.397,1091161
0.088,-0.035,-1.084,18.962,-9.771,-84.351,1095172
0.074,-0.047,-1.071,19.695,-7.847,-84.748,1099183
0.070,-0.066,-1.079,19.542,-6.153,-85.740,1103203
0.058,-0.093,-1.074,18.855,-4.809,-85.939,1107214
0.052,-0.112,-1.077,17.756,-4.244,-85.481,1111225
0.063,-0.125,-1.073,15.786,-4.809,-84.321,1115236
0.078,-0.134,-1.074,12.855,-5.618,-82.183,1119247
0.080,-0.144,-1.087,8.641,-7.099,-79.725,1123267
0.098,-0.127,-1.070,4.122,-9.725,-76.351,1127279
0.119,-0.137,-1.063,-0.473,-12.870,-72.809,1131289
0.128,-0.109,-1.052,-3.130,-16.641,-69.008,1135300
0.144,-0.079,-1.042,-2.779,-20.519,-66.076,1139312
0.162,-0.071,-1.059,-0.397,-25.527,-62.321,1143331
0.182,-0.078,-1.081,2.626,-29.893,-59.038,1147342
0.194,-0.084,-1.097,6.076,-34.611,-56.672,1151353
0.177,-0.081,-1.106,10.458,-38.626,-54.855,1155364
0.150,-0.086,-1.115,15.985,-41.618,-54.229,1159375
0.105,-0.081,-1.140,20.641,-43.252,-53.908,1163387
0.055,-0.077,-1.145,23.924,-43.328,-53.099,1167398
0.021,-0.073,-1.150,26.321,-41.145,-52.412,1171409
-0.001,-0.072,-1.164,28.290,-37.023,-51.847,1175420
-0.022,-0.081,-1.177,28.916,-31.145,-51.954,1179431
-0.052,-0.093,-1.186,28.260,-24.229,-51.420,1183442
-0.059,-0.109,-1.185,26.031,-17.344,-50.595,1187453
-0.080,-0.111,-1.191,23.756,-9.771,-49.069,1191464
-0.071,-0.098,-1.186,21.664,-2.412,-47.817,1195475
-0.036,-0.091,-1.172,18.336,3.130,-46.611,1199486
0.021,-0.092,-1.176,14.672,6.351,-45.710,1203497
0.068,-0.094,-1.172,12.229,8.076,-45.115,1207508
0.093,-0.106,-1.168,10.427,8.733,-45.267,1211520
0.087,-0.136,-1.166,8.534,7.985,-44.290,1215530
0.074,-0.178,-1.193,6.458,5.588,-43.695,1219541
0.080,-0.216,-1.190,3.756,2.107,-43.756,1223554
0.094,-0.243,-1.191,0.122,-2.748,-43.573,1227565
0.100,-0.254,-1.178,-4.214,-7.450,-42.427,1231576
0.099,-0.218,-1.165,-6.992,-11.939,-40.855,1235587
0.094,-0.176,-1.163,-8.397,-15.893,-40.061,1239598
0.073,-0.150,-1.166,-9.664,-18.931,-39.618,1243618
0.042,-0.150,-1.145,-10.947,-20.992,-39.344,1247629
0.022,-0.162,-1.139,-11.908,-22.244,-39.252,1251641
0.009,-0.170,-1.130,-11.405,-22.595,-38.916,1255652
-0.002,-0.176,-1.121,-10.214,-22.275,-38.061,1259663
-0.011,-0.184,-1.113,-7.756,-20.290,-37.298,1263684
-0.032,-0.212,-1.111,-5.908,-18.382,-36.779,1267695
-0.042,-0.230,-1.118,-4.977,-15.924,-35.893,1271706
-0.051,-0.237,-1.104,-4.137,-12.824,-35.084,1275717
-0.039,-0.244,-1.101,-2.870,-9.405,-34.183,1279728
-0.045,-0.223,-1.099,-2.000,-6.290,-33.344,1283742
-0.055,-0.210,-1.085,-0.977,-2.321,-32.992,1287752
-0.073,-0.204,-1.079,-0.947,3.313,-32.870,1291764
-0.090,-0.196,-1.071,-0.702,7.588,-31.740,1295774
-0.093,-0.202,-1.063,-0.260,13.069,-31.527,1299785
-0.085,-0.200,-1.059,-0.824,16.595,-31.053,1303797
-0.062,-0.205,-1.069,-0.794,20.168,-29.786,1307808
-0.045,-0.215,-1.078,-0.229,22.260,-29.023,1311820
-0.010,-0.231,-1.096,0.000,21.099,-27.664,1315831
0.031,-0.265,-1.118,0.183,16.504,-26.687,1319842
0.060,-0.291,-1.100,0.733,14.855,-25.847,1323863
0.123,-0.308,-1.153,0.427,6.443,-24.244,1327874
0.118,-0.296,-1.132,0.962,2.092,-26.931,1331885
0.040,-0.340,-1.145,1.878,-0.824,-20.672,1335896
0.061,-0.346,-1.152,1.069,-6.824,-17.023,1339915
0.124,-0.331,-1.152,1.557,-12.351,-21.664,1343926
0.131,-0.305,-1.150,0.397,-17.863,-26.916,1347937
0.108,-0.286,-1.155,-1.679,-22.580,-28.855,1351948
0.105,-0.286,-1.156,-3.267,-27.725,-29.160,1355959
0.101,-0.297,-1.131,-4.962,-30.748,-29.679,1359970
0.077,-0.293,-1.121,-5.878,-31.527,-30.198,1363981
0.064,-0.281,-1.142,-6.275,-32.977,-31.756,1367993
0.045,-0.270,-1.147,-5.954,-33.405,-33.420,1372004
0.019,-0.250,-1.160,-5.328,-31.511,-34.397,1376015
0.008,-0.246,-1.160,-4.458,-28.137,-35.481,1380026
-0.016,-0.255,-1.165,-4.061,-24.504,-36.611,1384037
-0.040,-0.275,-1.167,-4.244,-20.107,-38.092,1388049
-0.055,-0.277,-1.156,-4.015,-15.573,-39.542,1392059
-0.063,-0.261,-1.166,-3.954,-11.786,-40.000,1396070
-0.068,-0.238,-1.179,-4.214,-7.756,-40.336,1400081
-0.096,-0.234,-1.178,-6.000,-2.382,-40.458,1404092
-0.083,-0.214,-1.175,-8.046,1.649,-40.275,1408104
-0.070,-0.192,-1.152,-9.573,6.840,-41.771,1412115
-0.105,-0.176,-1.150,-10.611,10.840,-40.000,1416126
-0.104,-0.146,-1.155,-11.069,14.595,-37.588,1420137
-0.065,-0.136,-1.150,-11.450,17.023,-37.374,1424148
-0.047,-0.113,-1.156,-11.252,18.382,-37.832,1428159
-0.031,-0.104,-1.159,-11.786,18.321,-38.122,1432170
-0.024,-0.110,-1.145,-12.336,17.405,-37.725,1436181
-0.003,-0.118,-1.142,-12.626,15.725,-37.374,1440192
0.017,-0.118,-1.131,-13.450,13.344,-37.573,1444203
0.023,-0.104,-1.126,-13.954,11.023,-38.244,1448217
0.023,-0.096,-1.106,-15.099,8.458,-38.702,1452228
0.019,-0.100,-1.109,-16.870,5.191,-38.977,1456239
0.016,-0.103,-1.097,-18.656,3.405,-38.473,1460250
0.022,-0.081,-1.089,-19.588,0.702,-38.519,1464261
0.013,-0.064,-1.083,-20.275,-1.710,-38.443,1468273
-0.005,-0.053,-1.074,-20.687,-3.511,-37.939,1472284
-0.014,-0.038,-1.074,-21.389,-4.702,-37.466,1476295
-0.016,-0.027,-1.072,-22.794,-5.878,-36.718,1480306
-0.015,-0.027,-1.060,-24.214,-6.519,-36.046,1484317
-0.020,-0.006,-1.056,-24.840,-7.328,-35.588,1488329
-0.032,0.013,-1.052,-24.931,-7.649,-34.779,1492340
-0.035,0.038,-1.062,-25.069,-8.107,-33.481,1496351
-0.038,0.046,-1.047,-25.771,-8.718,-32.214,1500362
-0.019,0.053,-1.050,-25.954,-8.885,-31.145,1504373
-0.010,0.064,-1.036,-25.405,-9.695,-29.832,1508383
0.005,0.079,-1.055,-24.473,-10.137,-28.580,1512395
-0.004,0.087,-1.048,-23.191,-10.397,-26.351,1516405
0.003,0.085,-1.043,-21.649,-9.954,-25.374,1520416
-0.009,0.086,-1.041,-19.252,-9.756,-23.573,1524427
-0.026,0.081,-1.047,-16.153,-8.351,-21.603,1528438
-0.024,0.082,-1.050,-12.931,-6.794,-20.489,1532449
-0.028,0.083,-1.060,-9.756,-5.160,-19.756,1536460
-0.037,0.078,-1.064,-7.145,-3.359,-18.336,1540471
-0.029,0.065,-1.068,-4.779,-1.252,-16.244,1544482
-0.030,0.068,-1.056,-3.282,0.977,-14.321,1548493
-0.007,0.073,-1.060,-2.214,2.611,-12.489,1552504
0.009,0.083,-1.066,-0.824,4.260,-11.191,1556516
0.027,0.097,-1.064,0.885,5.649,-10.061,1560527
0.039,0.096,-1.067,2.290,6.992,-8.504,1564538
0.045,0.087,-1.064,2.855,7.863,-7.176,1568546
0.062,0.070,-1.058,3.802,7.740,-5.740,1572558
0.080,0.060,-1.067,4.458,7.634,-4.931,1576568
0.088,0.057,-1.066,5.466,6.443,-3.954,1580579
0.095,0.060,-1.073,6.092,5.191,-3.344,1584590
0.096,0.061,-1.087,6.244,3.237,-3.160,1588602
0.102,0.036,-1.100,5.985,1.649,-2.824,1592613
0.097,0.032,-1.103,5.969,0.351,-2.962,1596625
0.088,0.015,-1.125,5.802,-1.588,-3.282,1600636
0.077,0.002,-1.143,4.779,-2.687,-2.947,1604647
0.074,0.001,-1.145,3.679,-3.740,-2.779,1608659
0.077,-0.008,-1.145,2.107,-4.412,-2.748,1612680
0.085,-0.009,-1.151,0.489,-4.595,-2.672,1616691
0.095,0.004,-1.141,-1.160,-5.099,-2.321,1620702
0.103,0.005,-1.149,-2.473,-5.115,-2.458,1624713
0.110,0.013,-1.138,-3.344,-5.176,-2.382,1628725
0.111,0.014,-1.135,-3.969,-4.870,-2.595,1632740
0.125,0.021,-1.123,-4.885,-4.824,-2.779,1636751
0.126,0.025,-1.112,-5.282,-4.794,-3.191,1640762
0.143,0.036,-1.110,-4.641,-4.672,-3.481,1644773
0.144,0.044,-1.115,-3.878,-4.885,-3.527,1648784
0.149,0.053,-1.115,-3.038,-4.885,-4.137,1652796
0.143,0.036,-1.117,-1.954,-5.130,-4.412,1656807
0.129,0.026,-1.133,-0.565,-5.328,-4.626,1660819
0.115,0.033,-1.133,1.038,-5.099,-4.427,1664830
0.105,0.020,-1.139,2.198,-4.870,-4.107,1668841
0.096,0.024,-1.138,3.313,-4.580,-3.420,1672851
0.101,0.018,-1.147,3.939,-4.015,-2.565,1676862
0.100,0.019,-1.152,4.443,-3.435,-1.435,1680873
0.096,0.019,-1.157,4.611,-2.641,-0.214,1684884
0.091,0.018,-1.159,4.321,-1.496,1.053,1688895
0.101,0.006,-1.155,3.221,-0.733,2.321,1692905
0.096,-0.002,-1.156,2.092,0.107,3.099,1696916
0.120,-0.004,-1.140,1.069,0.947,3.832,1700927
0.123,0.002,-1.146,0.015,1.588,4.473,1704939
0.136,0.010,-1.152,-1.130,1.985,4.733,1708950
0.140,0.018,-1.147,-1.893,1.969,4.534,1712969
0.143,0.016,-1.154,-2.672,1.817,3.924,1716980
0.150,0.012,-1.145,-2.870,1.466,3.191,1720991
0.160,0.002,-1.153,-3.298,0.992,2.443,1725002
0.158,-0.004,-1.151,-3.481,0.382,1.817,1729013
0.154,-0.009,-1.161,-3.985,-0.046,1.374,1733034
0.160,-0.014,-1.156,-5.084,-0.626,0.718,1737045
0.160,-0.020,-1.155,-6.031,-1.527,0.382,1741057
0.158,-0.010,-1.156,-6.733,-2.076,0.061,1745068
0.167,-0.009,-1.153,-7.176,-2.275,-0.885,1749079
0.158,-0.015,-1.141,-8.122,-2.244,-1.374,1753091
0.153,-0.009,-1.136,-9.282,-1.695,-1.954,1757102
0.159,-0.003,-1.127,-10.107,-1.344,-2.565,1761113
0.156,0.008,-1.124,-9.832,-0.595,-3.145,1765124
0.161,0.018,-1.111,-9.695,-0.321,-3.527,1769135
0.159,0.015,-1.117,-9.115,0.244,-3.588,1773145
0.152,0.004,-1.127,-8.656,0.809,-3.969,1777156
0.144,-0.008,-1.125,-7.969,1.084,-3.649,1781167
0.140,-0.007,-1.119,-7.328,1.298,-3.160,1785178
0.137,-0.009,-1.111,-6.763,1.649,-2.321,1789189
0.131,-0.003,-1.113,-6.351,2.351,-1.527,1793209
0.130,0.010,-1.110,-6.031,2.763,-0.992,1797221
0.130,0.031,-1.110,-5.237,3.237,-0.595,1801231
0.119,0.040,-1.111,-4.641,3.435,0.031,1805242
0.126,0.038,-1.117,-4.290,4.504,0.519,1809253
0.132,0.037,-1.112,-3.985,5.282,0.305,1813273
0.137,0.027,-1.114,-3.618,6.046,0.260,1817284
0.141,0.029,-1.117,-3.160,6.275,0.076,1821295
0.141,0.036,-1.116,-2.626,6.656,-0.076,1825307
0.150,0.021,-1.124,-2.382,7.145,-0.275,1829318
0.164,0.028,-1.113,-2.153,7.038,-0.809,1833336
0.159,0.022,-1.115,-1.588,7.008,-1.374,1837347
0.155,0.015,-1.118,-1.206,6.809,-1.954,1841358
0.145,0.019,-1.126,-0.885,6.901,-2.336,1845370
0.149,0.005,-1.132,-0.962,6.473,-2.427,1849381
0.139,0.009,-1.135,-1.282,6.626,-2.473,1853392
0.141,0.010,-1.130,-1.481,6.351,-2.855,1857403
0.139,0.008,-1.135,-2.198,6.168,-3.130,1861414
0.133,0.003,-1.141,-2.855,5.664,-2.824,1865425
0.136,0.009,-1.128,-3.420,5.389,-2.489,1869436
0.134,0.014,-1.127,-4.427,4.885,-2.153,1873447
0.138,0.014,-1.128,-5.221,4.153,-2.061,1877458
0.139,0.011,-1.134,-6.076,3.664,-1.771,1881469
0.135,0.005,-1.126,-7.267,3.328,-1.450,1885480
0.139,0.009,-1.115,-8.214,2.794,-1.557,1889491
0.150,0.017,-1.112,-8.901,2.443,-1.542,1893502
0.146,0.027,-1.109,-9.420,2.137,-2.351,1897512
0.141,0.035,-1.106,-9.435,1.618,-3.069,1901523
0.137,0.035,-1.108,-9.496,1.115,-3.847,1905534
0.145,0.025,-1.112,-9.008,0.885,-4.351,1909545
0.145,0.027,-1.109,-8.504,0.809,-5.206,1913554
0.145,0.022,-1.113,-7.924,0.687,-5.084,1917565
0.143,0.021,-1.109,-7.389,0.519,-4.870,1921576
0.141,0.012,-1.120,-6.580,0.183,-4.229,1925588
0.141,0.015,-1.117,-6.046,-0.061,-3.420,1929599
0.144,0.014,-1.113,-5.389,-0.382,-2.763,1933618
0.141,0.021,-1.112,-4.824,-0.504,-2.534,1937629
0.142,0.026,-1.107,-4.153,-0.458,-2.061,1941640
0.143,0.030,-1.107,-3.679,-0.122,-2.107,1945651
0.137,0.033,-1.106,-3.053,0.046,-2.397,1949662
0.139,0.027,-1.101,-2.458,0.504,-2.641,1953683
0.136,0.027,-1.109,-2.076,0.519,-2.916,1957694
0.130,0.013,-1.105,-1.878,0.840,-3.130,1961705
0.138,0.012,-1.096,-2.519,0.779,-2.626,1965716
0.140,0.016,-1.117,-2.885,0.458,-2.046,1969727
0.151,0.017,-1.114,-3.405,0.137,-1.298,1973740
0.147,0.019,-1.121,-3.725,-0.702,-0.962,1977751
0.139,0.016,-1.131,-4.198,-1.145,-0.550,1981762
0.129,0.013,-1.127,-4.733,-1.389,-0.321,1985773
0.127,0.008,-1.120,-4.702,-1.725,-0.107,1989784
0.130,0.016,-1.124,-4.656,-1.710,-0.366,1993794
0.125,0.019,-1.124,-4.840,-1.389,-0.443,1997805
0.122,0.021,-1.127,-4.916,-0.794,-0.550,2001816
