acc_x,acc_y,acc_z,gyro_x,gyro_y,gyro_z,time
0.256,0.017,-1.122,-8.122,0.443,-0.626,0
0.267,0.014,-1.127,-7.985,0.412,-0.580,4047
0.261,0.019,-1.124,-7.618,0.336,-0.901,8060
0.253,0.019,-1.114,-7.344,0.687,-0.580,12071
0.250,0.014,-1.115,-7.237,0.885,-0.580,16082
0.242,0.024,-1.105,-7.313,1.206,-0.412,20094
0.244,0.025,-1.114,-7.237,1.649,-0.366,24105
0.240,0.019,-1.117,-7.145,2.015,-0.321,28116
0.244,0.019,-1.114,-7.328,2.550,-0.031,32127
0.239,0.020,-1.111,-7.313,2.168,0.183,36138
0.242,0.024,-1.114,-7.206,2.458,-0.015,40149
0.238,0.027,-1.101,-7.084,2.519,0.458,44160
0.235,0.034,-1.103,-6.947,2.458,0.153,48172
0.235,0.036,-1.098,-6.626,2.412,0.397,52182
0.239,0.037,-1.104,-6.351,2.443,0.137,56193
0.236,0.030,-1.099,-5.985,2.351,0.198,60204
0.233,0.029,-1.105,-5.740,2.244,0.214,64215
0.235,0.026,-1.091,-5.542,2.198,0.168,68226
0.242,0.032,-1.105,-5.466,1.740,0.137,72237
0.248,0.024,-1.109,-5.679,1.359,0.076,76248
0.244,0.020,-1.112,-5.603,1.344,-0.076,80259
0.241,0.022,-1.111,-5.450,0.809,-0.260,84270
0.239,0.017,-1.116,-5.389,0.672,-0.076,88282
0.244,0.021,-1.113,-5.618,0.061,-0.107,92293
0.249,0.018,-1.119,-5.405,-0.214,0.000,96304
0.249,0.015,-1.110,-5.206,-0.397,0.076,100315
0.241,0.026,-1.112,-5.053,-0.321,0.321,104326
0.240,0.021,-1.103,-4.992,-0.183,0.336,108338
0.234,0.019,-1.111,-5.084,0.031,0.473,112349
0.230,0.018,-1.105,-5.099,0.321,0.382,116360
0.228,0.020,-1.104,-5.298,0.794,0.458,120372
0.240,0.025,-1.101,-5.252,1.466,0.382,124383
0.227,0.014,-1.106,-5.527,1.847,0.275,128393
0.234,0.025,-1.105,-5.771,2.305,0.183,132404
0.232,0.014,-1.107,-5.695,2.305,0.122,136415
0.243,0.021,-1.096,-5.634,2.656,0.214,140427
0.244,0.023,-1.096,-5.740,2.504,0.000,144438
0.242,0.024,-1.107,-5.756,2.214,0.076,148448
0.254,0.029,-1.103,-5.160,2.229,0.015,152459
0.245,0.031,-1.104,-4.931,2.031,0.183,156470
0.246,0.029,-1.098,-4.427,1.573,0.092,160481
0.252,0.023,-1.109,-4.458,0.855,0.122,164492
0.244,0.024,-1.100,-4.214,1.176,0.092,168504
0.247,0.022,-1.110,-4.015,1.099,0.305,172515
0.245,0.019,-1.110,-3.939,0.611,0.519,176527
0.244,0.026,-1.101,-3.908,0.489,0.427,180537
0.245,0.017,-1.111,-4.000,0.565,0.137,184548
0.238,0.022,-1.109,-4.015,0.672,-0.137,188558
0.234,0.021,-1.107,-4.168,0.931,0.076,192570
0.241,0.011,-1.106,-4.443,0.947,0.198,196581
0.237,0.013,-1.094,-4.595,1.466,0.153,200593
0.239,0.021,-1.100,-4.763,2.046,0.122,204604
0.233,0.014,-1.103,-5.252,2.153,0.336,208615
0.241,0.025,-1.097,-5.023,2.321,0.092,212626
0.246,0.027,-1.100,-4.916,2.565,0.153,216637
0.240,0.020,-1.101,-4.489,2.336,0.046,220648
0.251,0.026,-1.105,-4.290,1.817,0.061,224659
0.253,0.024,-1.106,-3.893,1.344,0.122,228671
0.252,0.022,-1.105,-3.863,1.313,0.198,232691
0.253,0.014,-1.107,-3.695,0.824,0.076,236702
0.241,0.023,-1.109,-3.817,0.275,0.015,240713
0.245,0.017,-1.114,-3.786,0.015,0.046,244724
0.247,0.018,-1.114,-3.863,-0.229,0.031,248737
0.244,0.018,-1.110,-3.832,0.183,-0.336,252748
0.240,0.020,-1.109,-3.832,0.290,-0.412,256759
0.236,0.020,-1.105,-3.985,0.443,-0.427,260770
0.236,0.026,-1.103,-3.771,1.160,-0.718,264781
0.234,0.025,-1.110,-3.786,1.740,-0.962,268794
0.239,0.021,-1.102,-3.817,1.573,-0.550,272805
0.238,0.020,-1.108,-3.832,2.107,-0.489,276816
0.239,0.017,-1.111,-3.740,2.321,-0.565,280827
0.238,0.012,-1.107,-4.137,2.275,-0.504,284838
0.241,0.021,-1.109,-4.229,2.443,-0.092,288850
0.239,0.019,-1.108,-4.229,2.305,-0.015,292860
0.242,0.018,-1.110,-4.260,2.229,0.244,296871
0.244,0.023,-1.109,-4.565,1.695,0.458,300882
0.248,0.016,-1.112,-4.931,1.466,0.534,304893
0.246,0.019,-1.115,-4.763,1.405,0.153,308904
0.246,0.015,-1.109,-4.931,1.084,0.366,312916
0.239,0.023,-1.106,-4.840,0.931,0.198,316926
0.243,0.015,-1.101,-4.916,0.473,0.427,320937
0.239,0.024,-1.112,-4.672,0.534,0.305,324948
0.233,0.026,-1.108,-4.656,0.687,0.305,328959
0.242,0.023,-1.110,-4.794,0.580,0.382,332979
0.242,0.020,-1.111,-4.214,0.702,0.061,336990
0.245,0.023,-1.102,-4.305,0.763,0.107,341001
0.238,0.026,-1.101,-4.046,0.733,0.031,345013
0.244,0.027,-1.103,-4.046,0.794,-0.214,349024
0.240,0.028,-1.102,-3.878,0.855,-0.092,353044
0.241,0.033,-1.099,-3.450,0.794,-0.061,357055
0.244,0.023,-1.107,-3.221,0.351,-0.137,361066
0.250,0.027,-1.106,-2.977,-0.504,-0.137,365077
0.247,0.024,-1.111,-2.733,-0.992,0.031,369089
0.245,0.026,-1.104,-2.565,-2.046,0.198,373102
0.246,0.029,-1.113,-2.763,-2.458,0.504,377113
0.251,0.031,-1.106,-2.641,-3.298,0.641,381124
0.249,0.026,-1.112,-2.473,-4.061,0.824,385135
0.257,0.022,-1.120,-2.779,-5.099,0.870,389146
0.258,0.023,-1.117,-3.420,-6.626,0.931,393159
0.268,0.020,-1.114,-3.695,-8.366,0.809,397170
0.278,0.019,-1.128,-3.863,-10.031,0.534,401181
0.290,0.023,-1.121,-4.168,-12.260,0.519,405192
0.298,0.022,-1.120,-4.489,-14.748,0.214,409203
0.301,0.020,-1.115,-4.489,-17.985,-0.443,413224
0.318,0.024,-1.122,-4.489,-20.824,-1.282,417235
0.320,0.034,-1.118,-4.076,-24.092,-2.168,421246
0.324,0.032,-1.123,-3.481,-27.756,-3.252,425258
0.325,0.043,-1.126,-3.328,-31.221,-4.427,429269
0.330,0.040,-1.125,-2.626,-34.397,-5.450,433290
0.328,0.051,-1.128,-1.817,-37.450,-6.931,437301
0.324,0.051,-1.141,-0.641,-40.122,-8.702,441313
0.312,0.050,-1.151,0.092,-44.031,-9.496,445324
0.317,0.050,-1.142,1.603,-48.275,-9.649,449335
0.315,0.048,-1.164,3.221,-52.290,-10.504,453346
0.331,0.060,-1.173,5.038,-56.290,-11.740,457357
0.330,0.054,-1.176,6.595,-61.420,-12.626,461368
0.329,0.053,-1.182,7.710,-66.305,-13.924,465380
0.328,0.052,-1.172,8.916,-72.214,-15.008,469391
0.328,0.061,-1.171,10.198,-77.985,-16.137,473402
0.341,0.063,-1.179,12.305,-85.221,-17.389,477413
0.355,0.075,-1.181,14.611,-93.878,-18.076,481424
0.365,0.085,-1.183,17.374,-99.435,-19.221,485435
0.379,0.095,-1.193,20.763,-108.076,-20.168,489446
0.384,0.082,-1.205,22.977,-116.870,-21.115,493457
0.385,0.071,-1.213,24.443,-125.618,-22.122,497468
0.382,0.059,-1.217,25.359,-134.260,-23.084,501479
0.366,0.039,-1.205,25.298,-142.397,-24.214,505490
0.345,0.029,-1.198,25.481,-150.504,-25.282,509501
0.314,0.032,-1.191,26.198,-157.710,-26.031,513511
0.271,0.024,-1.196,26.366,-163.771,-26.611,517523
0.231,0.029,-1.193,25.969,-167.939,-26.977,521533
0.173,0.022,-1.194,24.840,-170.168,-27.969,525544
0.128,0.007,-1.184,22.626,-169.771,-30.061,529555
0.073,-0.003,-1.183,20.351,-167.786,-32.748,533566
0.029,-0.019,-1.180,17.603,-165.160,-36.000,537577
0.008,-0.009,-1.183,15.786,-161.649,-38.977,541588
-0.032,0.009,-1.173,14.931,-157.252,-42.244,545599
-0.016,0.010,-1.188,13.298,-153.267,-44.229,549610
0.004,0.065,-1.167,13.573,-144.855,-54.092,553630
-0.087,0.041,-1.191,14.382,-141.679,-53.511,557641
-0.083,0.004,-1.178,13.863,-141.710,-50.855,561652
-0.031,-0.012,-1.173,15.298,-141.939,-51.008,565663
0.005,0.003,-1.177,17.023,-143.527,-53.328,569674
0.026,0.038,-1.157,19.420,-145.481,-57.725,573695
-0.001,0.063,-1.158,22.489,-148.443,-59.817,577706
-0.034,0.061,-1.149,24.702,-152.168,-60.153,581717
-0.052,0.029,-1.134,27.252,-156.550,-59.832,585728
-0.057,0.009,-1.118,29.496,-159.817,-59.893,589740
-0.072,-0.004,-1.119,31.634,-162.794,-60.718,593751
-0.103,0.003,-1.098,33.893,-164.977,-61.008,597762
-0.128,-0.013,-1.085,35.237,-167.969,-60.275,601773
-0.123,-0.031,-1.090,36.153,-171.252,-58.305,605784
-0.115,-0.044,-1.072,37.450,-173.603,-57.359,609795
-0.112,-0.046,-1.068,38.718,-176.534,-56.962,613805
-0.124,-0.053,-1.073,39.344,-180.366,-56.519,617816
-0.119,-0.057,-1.060,40.076,-185.099,-56.000,621827
-0.112,-0.067,-1.021,40.702,-189.405,-56.031,625838
-0.134,-0.055,-1.020,44.214,-192.412,-55.618,629849
-0.182,-0.062,-1.029,46.305,-197.130,-54.794,633869
-0.211,-0.078,-1.002,46.947,-200.336,-54.305,637881
-0.255,-0.098,-0.994,47.466,-202.763,-54.794,641892
-0.284,-0.106,-0.987,47.924,-204.076,-54.855,645904
-0.305,-0.110,-0.975,48.473,-205.160,-55.359,649918
-0.313,-0.117,-0.968,49.053,-205.282,-56.198,653929
-0.328,-0.125,-0.967,49.359,-205.557,-56.656,657941
-0.337,-0.138,-0.963,49.405,-205.802,-56.046,661952
-0.341,-0.148,-0.960,49.160,-205.985,-55.298,665964
-0.348,-0.147,-0.952,49.603,-206.382,-54.641,669975
-0.357,-0.156,-0.945,50.366,-206.779,-53.695,673986
-0.367,-0.164,-0.939,51.740,-209.069,-51.634,677998
-0.343,-0.171,-0.923,52.794,-211.038,-50.366,682009
-0.339,-0.195,-0.922,54.427,-215.267,-48.275,686020
-0.336,-0.188,-0.906,56.473,-218.962,-46.885,690031
-0.335,-0.179,-0.883,58.580,-223.237,-45.603,694042
-0.361,-0.184,-0.872,60.840,-227.634,-43.176,698054
-0.369,-0.177,-0.843,63.298,-231.313,-41.038,702065
-0.375,-0.168,-0.824,66.214,-234.718,-40.214,706076
-0.406,-0.180,-0.816,68.351,-236.321,-40.260,710087
-0.449,-0.174,-0.795,70.626,-237.023,-38.992,714098
-0.478,-0.198,-0.764,72.321,-237.420,-37.481,718109
-0.493,-0.216,-0.752,73.634,-236.870,-35.588,722120
-0.514,-0.224,-0.737,74.153,-234.992,-33.542,726131
-0.529,-0.251,-0.725,72.931,-231.908,-31.664,730142
-0.536,-0.268,-0.743,70.015,-228.290,-30.427,734153
-0.558,-0.297,-0.768,66.244,-225.267,-29.634,738162
-0.542,-0.321,-0.777,62.534,-223.160,-29.435,742173
-0.531,-0.341,-0.765,58.656,-222.534,-29.908,746184
-0.506,-0.351,-0.769,55.725,-223.344,-30.336,750195
-0.477,-0.351,-0.771,53.008,-224.702,-31.725,754206
-0.476,-0.363,-0.757,50.260,-226.443,-32.962,758220
-0.483,-0.372,-0.748,47.649,-227.695,-33.710,762231
-0.514,-0.378,-0.728,45.038,-229.573,-33.466,766242
-0.536,-0.394,-0.726,42.321,-229.969,-33.618,770253
-0.558,-0.391,-0.705,40.214,-229.969,-34.290,774264
-0.580,-0.385,-0.687,38.840,-229.496,-34.779,778276
-0.601,-0.370,-0.684,37.893,-228.321,-35.176,782286
-0.615,-0.369,-0.659,36.687,-226.336,-34.733,786298
-0.624,-0.373,-0.643,35.969,-225.267,-33.725,790308
-0.619,-0.358,-0.633,34.870,-224.702,-32.763,794319
-0.619,-0.353,-0.610,33.511,-223.557,-32.122,798332
-0.616,-0.363,-0.599,32.641,-223.588,-31.084,802343
-0.622,-0.357,-0.592,31.527,-223.740,-30.458,806355
-0.612,-0.351,-0.572,30.458,-224.519,-30.443,810365
-0.622,-0.355,-0.558,29.389,-224.580,-31.374,814376
-0.649,-0.344,-0.534,28.580,-224.092,-31.496,818387
-0.673,-0.331,-0.506,28.244,-222.351,-31.756,822398
-0.686,-0.322,-0.489,28.076,-221.160,-31.374,826409
-0.690,-0.313,-0.474,27.817,-220.168,-30.931,830420
-0.682,-0.311,-0.454,27.511,-218.718,-31.450,834431
-0.695,-0.325,-0.437,27.389,-216.748,-31.389,838442
-0.718,-0.311,-0.419,26.794,-213.725,-30.992,842453
-0.741,-0.309,-0.400,26.824,-211.237,-29.756,846465
-0.733,-0.310,-0.379,27.282,-208.565,-28.885,850475
-0.723,-0.318,-0.370,27.634,-207.069,-28.000,854486
-0.707,-0.317,-0.370,28.366,-205.618,-27.145,858497
-0.696,-0.321,-0.352,28.855,-204.397,-27.221,862508
-0.701,-0.325,-0.347,29.557,-204.397,-26.275,866520
-0.696,-0.326,-0.319,30.656,-205.374,-25.939,870531
-0.668,-0.320,-0.312,31.725,-206.137,-25.817,874542
-0.687,-0.323,-0.292,32.733,-206.092,-25.679,878550
-0.717,-0.332,-0.280,33.527,-207.008,-25.435,882561
-0.731,-0.337,-0.263,34.427,-205.863,-25.618,886572
-0.760,-0.333,-0.252,34.763,-201.969,-26.214,890583
-0.811,-0.350,-0.240,34.824,-198.718,-25.817,894594
-0.814,-0.340,-0.203,33.679,-192.687,-25.466,898606
-0.812,-0.354,-0.213,33.008,-191.084,-24.107,902617
-0.790,-0.365,-0.205,32.107,-187.084,-23.176,906628
-0.773,-0.378,-0.200,30.260,-183.740,-21.496,910639
-0.761,-0.386,-0.204,27.802,-181.542,-20.534,914650
-0.739,-0.380,-0.214,24.992,-180.763,-20.321,918662
-0.724,-0.382,-0.204,22.076,-179.908,-21.679,922683
-0.725,-0.383,-0.204,19.130,-180.962,-22.565,926694
-0.731,-0.385,-0.171,17.359,-182.275,-23.145,930706
-0.733,-0.376,-0.156,15.878,-183.466,-23.939,934717
-0.748,-0.366,-0.147,14.565,-183.618,-25.298,938728
-0.787,-0.377,-0.142,13.328,-182.351,-26.351,942743
-0.836,-0.380,-0.116,12.427,-179.435,-27.511,946755
-0.887,-0.374,-0.106,12.733,-175.145,-28.168,950766
-0.920,-0.366,-0.100,13.756,-169.664,-29.069,954777
-0.952,-0.352,-0.091,15.359,-163.893,-29.298,958788
-0.986,-0.364,-0.102,16.718,-157.450,-29.924,962799
-1.017,-0.354,-0.091,18.702,-150.244,-30.122,966810
-1.040,-0.352,-0.112,21.176,-142.473,-30.809,970822
-1.087,-0.340,-0.107,23.008,-135.008,-31.786,974833
-1.135,-0.338,-0.112,26.031,-126.473,-33.069,978844
-1.193,-0.349,-0.115,28.656,-119.176,-33.313,982854
-1.214,-0.339,-0.115,30.809,-110.397,-33.832,986865
-1.252,-0.323,-0.134,32.855,-101.389,-33.924,990876
-1.292,-0.316,-0.149,34.366,-91.786,-33.374,994888
-1.335,-0.321,-0.154,35.542,-83.573,-31.298,998899
-1.348,-0.313,-0.157,36.229,-75.344,-28.015,1002908
-1.345,-0.281,-0.171,36.427,-67.420,-25.298,1006919
-1.345,-0.282,-0.179,36.305,-60.000,-22.336,1010930
-1.379,-0.294,-0.173,35.771,-53.099,-17.893,1014941
-1.380,-0.309,-0.177,35.282,-47.099,-12.458,1018952
-1.359,-0.313,-0.156,33.924,-41.847,-6.412,1022972
-1.320,-0.315,-0.157,32.321,-37.725,-1.176,1026983
-1.288,-0.328,-0.160,30.290,-34.183,4.183,1030994
-1.266,-0.358,-0.152,27.908,-32.656,9.573,1035005
-1.230,-0.390,-0.131,24.977,-31.237,14.931,1039016
-1.190,-0.406,-0.118,22.504,-30.275,20.397,1043037
-1.135,-0.406,-0.110,20.168,-29.466,24.611,1047048
-1.114,-0.408,-0.108,17.740,-28.137,28.962,1051059
-1.113,-0.414,-0.074,15.191,-27.496,33.191,1055070
-1.095,-0.418,-0.059,13.389,-26.092,36.702,1059081
-1.057,-0.406,-0.041,12.305,-24.229,38.947,1063093
-1.026,-0.398,-0.037,11.847,-21.725,39.802,1067104
-1.007,-0.403,-0.021,11.817,-18.885,40.092,1071115
-0.993,-0.395,-0.005,12.153,-15.634,39.588,1075126
-0.958,-0.383,0.014,12.672,-12.611,38.321,1079137
-0.936,-0.371,0.029,13.664,-8.305,36.382,1083149
-0.918,-0.373,0.053,15.344,-3.832,34.305,1087160
-0.924,-0.376,0.062,16.977,0.947,33.053,1091172
-0.895,-0.375,0.066,18.000,5.847,31.466,1095182
-0.856,-0.372,0.066,18.672,9.679,29.160,1099193
-0.814,-0.382,0.062,18.290,13.206,26.244,1103213
-0.805,-0.396,0.061,17.603,15.206,23.985,1107224
-0.782,-0.404,0.071,16.504,16.489,22.183,1111235
-0.750,-0.408,0.060,15.252,16.321,20.794,1115246
-0.726,-0.405,0.070,13.573,15.878,19.298,1119257
-0.700,-0.417,0.055,11.313,14.977,17.679,1123276
-0.693,-0.440,0.055,8.260,13.893,15.374,1127287
-0.694,-0.455,0.040,4.885,13.038,13.389,1131298
-0.698,-0.467,0.036,1.939,11.176,12.031,1135309
-0.697,-0.476,0.038,-0.305,9.053,10.550,1139320
-0.686,-0.462,0.046,-1.725,6.351,8.748,1143338
-0.688,-0.454,0.042,-2.351,3.053,6.992,1147350
-0.696,-0.459,0.042,-2.107,-0.687,5.420,1151360
-0.709,-0.447,0.054,-1.374,-3.542,3.038,1155371
-0.723,-0.451,0.030,-0.534,-5.817,1.115,1159383
-0.736,-0.455,0.022,0.290,-7.511,-1.099,1163394
-0.758,-0.458,0.022,1.008,-8.000,-3.435,1167405
-0.776,-0.452,0.015,0.947,-8.092,-5.832,1171416
-0.796,-0.450,0.025,1.481,-7.679,-8.366,1175427
-0.820,-0.440,0.018,1.405,-6.473,-11.252,1179438
-0.835,-0.433,0.011,1.496,-5.008,-13.618,1183449
-0.856,-0.436,-0.005,1.023,-2.748,-15.481,1187460
-0.862,-0.448,-0.001,0.336,-0.275,-16.870,1191471
-0.860,-0.437,0.003,-0.321,1.603,-17.405,1195483
-0.853,-0.434,-0.002,-1.053,2.809,-17.298,1199494
-0.838,-0.419,-0.008,-2.275,2.962,-17.221,1203504
-0.849,-0.417,-0.005,-3.786,2.611,-16.656,1207515
-0.873,-0.427,-0.012,-5.374,2.397,-15.298,1211526
-0.886,-0.417,-0.010,-7.588,2.122,-13.679,1215537
-0.893,-0.407,-0.006,-9.496,2.046,-12.275,1219548
-0.896,-0.393,0.009,-11.008,1.374,-11.496,1223558
-0.903,-0.391,0.004,-12.229,1.374,-10.992,1227569
-0.918,-0.393,0.006,-13.374,1.496,-10.244,1231580
-0.928,-0.386,0.004,-14.122,1.618,-9.725,1235591
-0.937,-0.388,0.005,-15.038,2.397,-9.389,1239602
-0.940,-0.385,0.010,-15.084,2.473,-8.397,1243622
-0.936,-0.367,0.017,-14.336,2.244,-7.908,1247633
-0.914,-0.351,0.016,-13.023,1.542,-7.740,1251644
-0.918,-0.339,0.019,-11.527,1.328,-7.863,1255655
-0.947,-0.328,0.027,-9.435,1.389,-7.695,1259666
-0.956,-0.317,0.045,-7.069,1.786,-7.603,1263687
-0.969,-0.325,0.048,-4.427,3.237,-7.130,1267699
-0.965,-0.322,0.045,-2.321,4.702,-6.489,1271710
-0.959,-0.339,0.036,-0.733,6.580,-6.183,1275721
-0.953,-0.344,0.038,0.321,8.031,-5.359,1279732
-0.936,-0.355,0.029,0.763,9.588,-3.603,1283745
-0.913,-0.354,0.024,0.565,10.366,-2.519,1287756
-0.902,-0.355,0.025,0.153,11.053,-2.076,1291767
-0.900,-0.355,0.014,-1.313,11.206,-1.664,1295779
-0.898,-0.362,0.010,-2.992,11.527,-0.962,1299790
-0.897,-0.356,0.009,-4.809,11.389,-0.305,1303802
-0.887,-0.346,0.016,-6.000,10.931,-0.412,1307812
-0.883,-0.343,0.010,-6.947,10.473,-0.473,1311823
-0.886,-0.351,0.023,-7.435,10.046,-0.397,1315834
-0.890,-0.359,0.012,-8.046,10.046,0.061,1319845
-0.880,-0.366,0.020,-8.229,8.855,1.069,1323866
-0.868,-0.352,0.017,-7.481,7.450,1.908,1327877
-0.859,-0.358,0.009,-6.626,6.031,2.198,1331888
-0.875,-0.362,0.012,-5.282,4.382,2.443,1335900
-0.876,-0.359,0.018,-3.282,2.977,2.748,1339919
-0.881,-0.347,0.017,-1.176,1.863,2.641,1343930
-0.884,-0.340,0.021,0.931,1.710,2.137,1347941
-0.897,-0.348,0.010,3.466,2.122,1.359,1351952
-0.903,-0.345,0.015,5.313,3.359,0.031,1355964
-0.903,-0.362,0.012,7.023,5.008,-0.824,1359975
-0.899,-0.373,0.005,8.504,6.702,-1.389,1363986
-0.902,-0.390,-0.010,8.855,8.168,-1.328,1367998
-0.882,-0.391,-0.015,8.931,9.282,-1.649,1372009
-0.861,-0.388,-0.031,7.985,9.588,-2.275,1376020
-0.855,-0.400,-0.031,6.855,9.511,-3.008,1380031
-0.860,-0.410,-0.033,5.252,9.053,-3.313,1384042
-0.867,-0.408,-0.033,3.420,8.641,-3.374,1388054
-0.853,-0.409,-0.041,1.847,7.527,-2.931,1392065
-0.856,-0.397,-0.031,-0.214,7.023,-2.885,1396076
-0.866,-0.400,-0.036,-2.183,6.397,-2.779,1400087
-0.880,-0.409,-0.046,-3.634,6.198,-2.473,1404098
-0.874,-0.425,-0.037,-5.038,5.069,-1.542,1408109
-0.868,-0.413,-0.041,-5.649,3.908,-0.748,1412120
-0.861,-0.406,-0.040,-6.137,2.595,-0.626,1416131
-0.862,-0.406,-0.047,-6.107,1.252,-0.824,1420142
-0.867,-0.398,-0.042,-5.237,0.687,-1.252,1424153
-0.885,-0.395,-0.032,-4.214,0.901,-2.229,1428162
-0.903,-0.383,-0.036,-3.176,1.557,-2.992,1432173
-0.903,-0.380,-0.037,-2.275,3.359,-3.695,1436184
-0.905,-0.374,-0.029,-1.206,5.099,-4.748,1440195
-0.904,-0.370,-0.030,-0.321,7.588,-6.519,1444206
-0.913,-0.379,-0.032,0.275,9.450,-7.038,1448220
-0.907,-0.391,-0.045,0.733,10.977,-6.687,1452231
-0.882,-0.386,-0.049,0.183,11.740,-6.687,1456242
-0.870,-0.383,-0.051,0.031,11.893,-7.023,1460253
-0.867,-0.392,-0.053,-0.351,11.832,-6.885,1464264
-0.865,-0.390,-0.056,-1.527,11.221,-6.397,1468276
-0.863,-0.392,-0.049,-2.931,10.595,-5.557,1472286
-0.860,-0.397,-0.058,-4.229,9.603,-5.191,1476298
-0.857,-0.390,-0.058,-6.046,8.962,-5.130,1480308
-0.875,-0.389,-0.055,-7.237,8.733,-5.191,1484319
-0.884,-0.385,-0.051,-8.687,9.008,-4.962,1488332
-0.896,-0.376,-0.051,-9.466,9.679,-5.420,1492343
-0.891,-0.369,-0.052,-9.939,10.656,-5.771,1496355
-0.900,-0.361,-0.040,-10.122,11.511,-6.641,1500365
-0.908,-0.356,-0.046,-9.985,12.992,-7.481,1504376
-0.910,-0.353,-0.048,-9.893,14.214,-7.847,1508387
-0.913,-0.346,-0.050,-9.008,15.053,-8.672,1512398
-0.921,-0.347,-0.050,-7.908,16.244,-9.832,1516409
-0.925,-0.340,-0.048,-6.489,16.885,-10.427,1520420
-0.931,-0.341,-0.041,-4.718,18.137,-11.573,1524431
-0.931,-0.332,-0.052,-3.023,18.977,-12.137,1528442
-0.935,-0.337,-0.054,-1.450,20.168,-12.458,1532453
-0.939,-0.339,-0.048,0.183,21.344,-12.870,1536465
-0.936,-0.347,-0.047,1.786,23.038,-12.824,1540475
-0.954,-0.351,-0.059,2.855,24.504,-12.931,1544486
-0.943,-0.361,-0.062,3.634,26.122,-12.855,1548497
-0.946,-0.362,-0.058,4.046,28.183,-12.809,1552508
-0.940,-0.370,-0.061,3.863,30.015,-13.069,1556520
-0.948,-0.375,-0.074,3.588,32.061,-13.450,1560531
-0.945,-0.388,-0.081,2.916,34.061,-14.000,1564542
-0.928,-0.392,-0.084,1.802,35.985,-14.641,1568550
-0.932,-0.389,-0.082,0.611,37.573,-15.710,1572561
-0.928,-0.393,-0.090,-0.687,39.176,-17.038,1576572
-0.927,-0.390,-0.082,-1.802,41.069,-18.977,1580583
-0.950,-0.383,-0.078,-2.794,43.985,-20.870,1584594
-0.971,-0.408,-0.082,-3.908,48.275,-22.214,1588606
-0.989,-0.425,-0.078,-6.275,52.473,-22.168,1592617
-0.975,-0.447,-0.086,-8.794,56.794,-21.542,1596628
-0.947,-0.455,-0.095,-11.496,59.786,-20.580,1600639
-0.944,-0.466,-0.119,-14.748,62.473,-19.863,1604650
-0.943,-0.487,-0.128,-19.145,64.718,-18.443,1608662
-0.943,-0.501,-0.137,-23.344,66.550,-16.504,1612683
-0.944,-0.514,-0.139,-27.771,68.046,-14.443,1616694
-0.935,-0.504,-0.137,-31.252,68.000,-12.656,1620706
-0.926,-0.502,-0.130,-33.954,67.237,-10.992,1624717
-0.916,-0.505,-0.131,-36.305,66.321,-9.618,1628728
-0.908,-0.493,-0.125,-38.092,65.069,-8.763,1632743
-0.912,-0.476,-0.123,-38.321,63.939,-8.580,1636755
-0.916,-0.462,-0.105,-36.916,61.985,-8.321,1640766
-0.920,-0.440,-0.094,-34.519,60.870,-8.504,1644777
-0.942,-0.441,-0.094,-32.031,60.992,-8.885,1648788
-0.964,-0.439,-0.098,-29.588,62.046,-9.679,1652799
-0.983,-0.427,-0.100,-27.053,64.870,-10.687,1656810
-1.015,-0.418,-0.097,-24.534,69.496,-12.336,1660822
-1.038,-0.418,-0.103,-22.489,75.389,-13.679,1664833
-1.049,-0.424,-0.099,-20.916,81.878,-14.214,1668844
-1.032,-0.414,-0.100,-19.863,88.504,-14.718,1672854
-1.021,-0.411,-0.105,-19.359,95.252,-15.863,1676865
-1.013,-0.421,-0.116,-19.817,101.878,-17.053,1680876
-1.015,-0.444,-0.133,-21.191,108.458,-17.664,1684888
-1.011,-0.456,-0.141,-23.511,115.282,-17.634,1688899
-1.002,-0.467,-0.154,-27.130,122.244,-17.435,1692908
-0.994,-0.477,-0.164,-31.863,129.053,-17.008,1696919
-0.988,-0.494,-0.181,-37.786,136.458,-16.901,1700930
-0.996,-0.502,-0.202,-44.718,144.580,-16.763,1704942
-1.002,-0.524,-0.219,-53.191,152.931,-16.183,1708953
-1.007,-0.550,-0.228,-62.473,161.939,-15.084,1712972
-1.007,-0.557,-0.245,-72.229,170.595,-14.031,1716983
-0.993,-0.552,-0.251,-82.504,178.656,-13.053,1720994
-0.964,-0.542,-0.254,-92.076,186.427,-12.656,1725005
-0.953,-0.534,-0.255,-101.557,193.725,-12.779,1729016
-0.945,-0.539,-0.263,-110.382,199.893,-12.977,1733037
-0.929,-0.538,-0.249,-115.878,202.779,-12.550,1737048
-0.890,-0.497,-0.221,-116.595,200.672,-11.160,1741059
-0.827,-0.453,-0.209,-113.298,195.450,-10.305,1745071
-0.761,-0.421,-0.230,-107.496,189.450,-10.305,1749082
-0.734,-0.402,-0.246,-100.901,183.191,-10.015,1753093
-0.734,-0.387,-0.248,-93.939,176.977,-8.947,1757105
-0.760,-0.375,-0.272,-86.275,171.344,-7.802,1761115
-0.773,-0.363,-0.281,-78.855,167.038,-6.107,1765126
-0.790,-0.345,-0.303,-70.595,164.198,-4.733,1769138
-0.829,-0.329,-0.302,-62.611,163.099,-2.718,1773149
-0.847,-0.307,-0.311,-54.473,163.328,-0.626,1777160
-0.863,-0.299,-0.323,-46.855,164.305,1.511,1781171
-0.857,-0.296,-0.337,-39.817,165.802,3.206,1785182
-0.865,-0.290,-0.330,-33.160,168.366,4.137,1789193
-0.875,-0.296,-0.349,-26.977,172.534,4.656,1793213
-0.899,-0.295,-0.353,-21.695,178.275,5.420,1797225
-0.909,-0.302,-0.355,-17.679,185.511,6.366,1801235
-0.915,-0.316,-0.370,-14.809,193.466,7.863,1805246
-0.893,-0.333,-0.397,-13.786,201.221,8.702,1809258
-0.879,-0.352,-0.418,-13.557,209.725,9.115,1813277
-0.868,-0.362,-0.435,-14.489,217.954,8.733,1817288
-0.862,-0.374,-0.458,-16.687,226.260,7.832,1821299
-0.861,-0.386,-0.478,-19.695,234.473,7.359,1825310
-0.852,-0.397,-0.500,-22.885,243.160,6.443,1829321
-0.850,-0.401,-0.524,-26.092,251.405,5.588,1833339
-0.860,-0.409,-0.545,-30.107,258.931,5.115,1837351
-0.850,-0.435,-0.565,-35.099,266.031,5.420,1841362
-0.840,-0.452,-0.573,-40.412,272.626,5.802,1845374
-0.824,-0.468,-0.589,-45.603,279.160,7.435,1849385
-0.798,-0.474,-0.596,-50.779,284.046,9.389,1853396
-0.775,-0.478,-0.608,-55.511,287.969,11.924,1857407
-0.744,-0.467,-0.621,-60.443,291.084,14.885,1861419
-0.712,-0.469,-0.645,-64.565,293.099,18.076,1865429
-0.675,-0.463,-0.643,-69.282,294.107,21.328,1869440
-0.638,-0.469,-0.659,-74.168,293.939,24.809,1873451
-0.585,-0.471,-0.672,-79.206,292.351,27.557,1877462
-0.529,-0.472,-0.690,-83.969,289.405,30.244,1881473
-0.487,-0.473,-0.697,-88.366,285.466,31.802,1885484
-0.453,-0.462,-0.711,-92.443,281.481,32.321,1889495
-0.425,-0.445,-0.713,-96.260,277.099,32.443,1893506
-0.418,-0.425,-0.715,-99.023,273.863,31.725,1897517
-0.414,-0.418,-0.716,-100.656,269.969,31.176,1901528
-0.409,-0.399,-0.719,-101.527,267.130,29.740,1905539
-0.411,-0.385,-0.719,-102.031,264.855,28.183,1909550
-0.425,-0.377,-0.739,-102.427,263.282,27.527,1913565
-0.430,-0.361,-0.741,-101.847,262.595,27.115,1917576
-0.425,-0.359,-0.751,-101.160,261.771,27.939,1921587
-0.427,-0.366,-0.754,-100.092,262.000,29.740,1925598
-0.393,-0.359,-0.774,-99.542,262.580,30.672,1929609
-0.385,-0.353,-0.769,-97.313,263.099,31.893,1933629
-0.372,-0.341,-0.782,-94.977,264.443,33.847,1937640
-0.371,-0.336,-0.795,-93.130,264.885,37.511,1941651
-0.341,-0.340,-0.789,-92.092,264.260,41.084,1945663
-0.308,-0.341,-0.808,-90.779,262.855,45.389,1949674
-0.256,-0.330,-0.810,-90.046,261.023,48.962,1953694
-0.208,-0.323,-0.814,-89.618,258.595,51.679,1957705
-0.178,-0.301,-0.810,-90.046,256.244,52.962,1961716
-0.142,-0.279,-0.803,-90.092,253.679,53.573,1965727
-0.121,-0.257,-0.810,-89.893,251.573,53.221,1969738
-0.107,-0.245,-0.808,-89.420,248.366,52.351,1973750
-0.115,-0.232,-0.822,-89.221,245.832,52.565,1977761
-0.098,-0.234,-0.828,-89.588,242.672,52.977,1981772
-0.080,-0.236,-0.834,-90.290,239.313,52.641,1985783
-0.072,-0.246,-0.852,-90.443,235.115,54.321,1989794
-0.043,-0.249,-0.865,-91.191,230.916,55.130,1993806
-0.023,-0.241,-0.879,-91.038,226.382,55.878,1997816
-0.003,-0.233,-0.900,-91.435,220.702,57.069,2001827
