acc_x,acc_y,acc_z,gyro_x,gyro_y,gyro_z,time
0.254,0.069,-1.095,-3.710,3.832,-0.504,0
0.260,0.068,-1.103,-3.954,3.863,-0.519,4050
0.263,0.074,-1.097,-4.366,3.847,-0.382,8063
0.261,0.075,-1.095,-4.611,3.756,-0.550,12073
0.255,0.074,-1.102,-5.145,3.511,-0.626,16084
0.251,0.078,-1.103,-5.313,3.328,-0.626,20095
0.257,0.083,-1.101,-5.069,3.069,-0.672,24106
0.255,0.093,-1.105,-5.084,3.359,-0.412,28117
0.257,0.082,-1.101,-4.840,2.901,-0.244,32128
0.255,0.091,-1.106,-5.023,2.641,-0.137,36139
0.255,0.085,-1.101,-4.885,2.489,0.137,40151
0.258,0.082,-1.093,-4.855,1.847,0.443,44162
0.253,0.088,-1.099,-4.855,1.542,0.947,48170
0.257,0.079,-1.103,-4.626,1.267,1.038,52181
0.259,0.084,-1.106,-4.565,0.718,1.450,56192
0.254,0.084,-1.098,-4.427,0.702,1.481,60203
0.258,0.084,-1.098,-4.244,0.397,1.466,64215
0.266,0.086,-1.099,-4.427,0.382,1.298,68226
0.262,0.087,-1.109,-4.687,0.718,1.115,72238
0.254,0.083,-1.094,-5.023,0.427,0.870,76248
0.255,0.076,-1.094,-5.038,0.763,0.870,80259
0.252,0.077,-1.102,-4.992,1.206,0.794,84270
0.255,0.074,-1.097,-4.931,1.542,0.641,88282
0.251,0.074,-1.102,-4.916,2.031,0.489,92293
0.258,0.076,-1.101,-4.947,2.397,0.763,96304
0.261,0.076,-1.100,-5.069,2.794,0.519,100315
0.262,0.075,-1.097,-5.282,2.931,0.336,104326
0.264,0.076,-1.099,-5.435,3.115,0.290,108338
0.261,0.070,-1.099,-5.481,3.191,0.260,112349
0.257,0.073,-1.098,-5.435,2.763,0.244,116361
0.271,0.073,-1.095,-5.435,2.840,0.321,120372
0.273,0.076,-1.098,-5.282,2.412,0.260,124383
0.276,0.077,-1.099,-5.282,2.290,0.290,128394
0.271,0.082,-1.100,-5.267,1.725,0.366,132405
0.265,0.081,-1.089,-5.267,1.542,0.061,136416
0.262,0.081,-1.094,-5.298,1.420,0.046,140427
0.261,0.075,-1.090,-4.977,1.160,0.000,144438
0.259,0.082,-1.097,-4.412,1.466,-0.305,148449
0.258,0.081,-1.098,-4.382,1.374,-0.229,152461
0.253,0.083,-1.094,-4.214,1.557,-0.122,156471
0.260,0.076,-1.089,-4.198,1.649,0.000,160482
0.261,0.077,-1.100,-4.260,1.664,-0.015,164493
0.259,0.078,-1.098,-4.092,1.939,0.076,168504
0.260,0.083,-1.092,-3.893,2.107,-0.061,172515
0.262,0.086,-1.099,-3.939,2.260,-0.015,176526
0.254,0.082,-1.090,-3.939,2.458,-0.107,180537
0.259,0.085,-1.089,-3.908,2.351,0.000,184548
0.260,0.083,-1.095,-4.000,2.427,0.107,188558
0.271,0.078,-1.103,-4.305,2.229,0.336,192570
0.270,0.079,-1.093,-4.305,1.893,0.366,196581
0.264,0.084,-1.090,-4.260,1.466,0.443,200593
0.269,0.083,-1.098,-4.092,0.947,0.336,204604
0.263,0.087,-1.104,-3.985,0.626,0.412,208615
0.260,0.083,-1.098,-4.046,0.626,0.397,212627
0.264,0.088,-1.102,-4.076,0.443,0.351,216637
0.254,0.085,-1.090,-4.260,0.137,0.427,220648
0.256,0.085,-1.105,-4.351,0.290,0.489,224659
0.253,0.090,-1.094,-4.458,0.275,0.534,228671
0.247,0.087,-1.099,-4.275,0.427,0.687,232691
0.250,0.083,-1.095,-4.122,0.794,0.565,236702
0.246,0.086,-1.099,-4.031,0.901,0.534,240713
0.246,0.082,-1.104,-3.908,1.145,0.504,244724
0.251,0.090,-1.112,-3.786,1.481,0.565,248736
0.252,0.088,-1.105,-3.725,1.618,0.229,252747
0.253,0.089,-1.111,-3.756,1.725,0.244,256758
0.252,0.089,-1.108,-3.649,1.771,0.122,260769
0.264,0.087,-1.114,-3.344,1.649,-0.092,264780
0.261,0.089,-1.117,-3.206,1.435,-0.107,268793
0.261,0.080,-1.115,-3.099,1.206,-0.107,272804
0.264,0.079,-1.118,-3.130,0.824,0.046,276815
0.271,0.083,-1.120,-3.160,0.397,0.214,280826
0.267,0.077,-1.122,-3.252,-0.076,0.183,284837
0.286,0.085,-1.129,-3.481,-1.176,0.153,288848
0.289,0.077,-1.129,-3.542,-2.565,-0.046,292859
0.300,0.084,-1.128,-3.328,-4.260,-0.305,296870
0.307,0.084,-1.135,-3.160,-6.275,-0.763,300882
0.328,0.095,-1.139,-3.130,-8.779,-1.542,304893
0.339,0.092,-1.135,-3.084,-11.603,-2.412,308904
0.348,0.106,-1.135,-2.855,-14.824,-3.634,312914
0.362,0.113,-1.134,-1.802,-18.046,-4.626,316925
0.365,0.117,-1.135,-1.542,-22.198,-6.107,320936
0.378,0.111,-1.145,0.000,-26.092,-7.664,324947
0.378,0.123,-1.142,1.115,-30.916,-9.634,328959
0.377,0.121,-1.152,2.504,-34.779,-11.099,332978
0.377,0.122,-1.155,4.061,-39.374,-12.519,336990
0.365,0.122,-1.155,5.511,-43.481,-14.031,341000
0.356,0.120,-1.166,7.359,-47.618,-15.282,345011
0.350,0.126,-1.173,9.206,-51.786,-16.336,349023
0.330,0.127,-1.180,11.282,-55.435,-17.664,353043
0.328,0.132,-1.180,13.008,-58.687,-18.931,357054
0.322,0.128,-1.180,14.763,-62.290,-20.260,361065
0.323,0.131,-1.183,16.565,-65.527,-21.939,365076
0.323,0.134,-1.184,17.802,-69.435,-23.160,369088
0.328,0.128,-1.176,19.557,-73.710,-25.344,373101
0.338,0.136,-1.186,21.145,-78.656,-27.450,377112
0.351,0.134,-1.175,23.023,-84.076,-29.725,381123
0.371,0.133,-1.180,24.687,-89.527,-32.275,385134
0.397,0.122,-1.175,26.489,-95.695,-35.221,389145
0.408,0.108,-1.173,27.603,-104.214,-38.260,393158
0.417,0.097,-1.166,28.534,-112.641,-41.450,397169
0.418,0.094,-1.155,30.336,-120.794,-45.130,401181
0.405,0.104,-1.146,32.595,-129.878,-49.206,405192
0.379,0.099,-1.129,34.397,-137.450,-53.191,409203
0.343,0.079,-1.140,35.313,-143.802,-57.221,413224
0.305,0.062,-1.139,35.878,-149.130,-60.275,417235
0.272,0.040,-1.149,36.656,-154.443,-62.290,421246
0.242,0.031,-1.132,36.947,-158.519,-63.664,425257
0.232,0.016,-1.132,37.160,-162.458,-64.305,429268
0.197,0.018,-1.146,37.466,-165.450,-63.756,433289
0.190,0.027,-1.117,39.939,-169.847,-63.847,437300
0.173,0.010,-1.124,40.580,-172.931,-65.237,441311
0.159,0.012,-1.103,40.718,-176.565,-66.489,445323
0.143,0.012,-1.101,41.695,-181.023,-66.290,449334
0.147,0.019,-1.100,43.344,-185.496,-67.466,453352
0.144,0.024,-1.080,45.771,-189.237,-69.389,457363
0.133,0.022,-1.068,48.382,-193.771,-71.053,461374
0.121,0.024,-1.057,50.626,-197.206,-71.603,465385
0.092,0.003,-1.039,52.916,-200.305,-71.328,469396
0.067,-0.018,-1.045,54.763,-203.466,-70.321,473407
0.048,-0.038,-1.046,55.618,-206.183,-69.420,477418
0.011,-0.076,-1.058,54.840,-208.458,-67.863,481429
-0.025,-0.085,-1.035,56.229,-207.267,-65.649,485441
-0.071,-0.101,-1.062,55.496,-208.641,-63.206,489452
-0.091,-0.112,-1.060,53.725,-210.718,-61.374,493463
-0.102,-0.125,-1.045,52.061,-211.191,-59.099,497474
-0.098,-0.133,-1.043,49.649,-211.771,-56.626,501486
-0.107,-0.134,-1.049,47.542,-211.878,-54.595,505497
-0.121,-0.133,-1.031,44.382,-213.038,-52.992,509508
-0.120,-0.134,-1.012,40.656,-215.099,-51.450,513518
-0.101,-0.127,-0.994,37.618,-218.122,-50.244,517529
-0.099,-0.121,-0.985,35.756,-220.595,-49.664,521540
-0.106,-0.113,-0.963,34.244,-223.863,-49.374,525552
-0.122,-0.111,-0.953,33.618,-228.733,-49.710,529563
-0.125,-0.096,-0.948,33.740,-233.969,-51.664,533573
-0.154,-0.095,-0.939,34.412,-239.389,-55.252,537584
-0.177,-0.075,-0.921,35.924,-244.122,-60.214,541595
-0.234,-0.076,-0.919,37.847,-248.046,-65.206,545606
-0.285,-0.084,-0.924,39.282,-251.389,-70.489,549617
-0.341,-0.104,-0.913,40.198,-253.221,-75.145,553637
-0.411,-0.115,-0.908,40.458,-252.824,-78.565,557649
-0.461,-0.129,-0.895,41.405,-251.328,-80.748,561660
-0.509,-0.141,-0.906,41.786,-248.305,-81.359,565672
-0.561,-0.162,-0.903,42.015,-244.473,-80.260,569683
-0.585,-0.176,-0.898,41.405,-239.817,-77.267,573704
-0.577,-0.190,-0.886,40.321,-235.573,-73.023,577714
-0.563,-0.196,-0.881,39.145,-232.214,-67.985,581725
-0.529,-0.187,-0.867,39.237,-230.153,-63.145,585736
-0.515,-0.184,-0.870,39.802,-229.298,-58.275,589747
-0.487,-0.179,-0.862,40.183,-230.198,-53.893,593758
-0.488,-0.175,-0.854,40.031,-231.450,-50.290,597768
-0.495,-0.180,-0.810,41.252,-234.458,-47.679,601780
-0.500,-0.173,-0.813,42.061,-237.542,-46.275,605790
-0.516,-0.182,-0.801,41.664,-240.458,-45.817,609801
-0.540,-0.176,-0.773,41.740,-242.534,-45.634,613811
-0.558,-0.177,-0.763,41.588,-246.244,-45.557,617822
-0.563,-0.185,-0.756,41.542,-249.634,-45.679,621833
-0.583,-0.185,-0.737,41.023,-252.336,-46.275,625845
-0.587,-0.192,-0.723,40.962,-254.458,-47.542,629856
-0.614,-0.201,-0.719,39.664,-255.405,-48.565,633875
-0.633,-0.207,-0.699,37.481,-256.870,-48.855,637888
-0.658,-0.204,-0.686,35.389,-257.985,-48.763,641899
-0.668,-0.201,-0.668,33.481,-258.580,-48.641,645910
-0.683,-0.191,-0.648,32.824,-258.672,-49.008,649921
-0.684,-0.194,-0.625,32.107,-258.473,-49.634,653932
-0.692,-0.199,-0.630,30.504,-257.069,-49.817,657943
-0.697,-0.201,-0.614,29.099,-255.450,-49.725,661954
-0.694,-0.204,-0.585,28.443,-254.183,-49.618,665965
-0.687,-0.208,-0.556,27.954,-253.374,-50.031,669976
-0.690,-0.218,-0.557,27.649,-252.153,-50.458,673987
-0.689,-0.223,-0.542,27.664,-250.672,-51.496,677999
-0.719,-0.234,-0.527,27.008,-249.328,-52.794,682010
-0.733,-0.251,-0.518,25.954,-246.992,-53.618,686021
-0.760,-0.259,-0.504,25.145,-244.427,-53.863,690032
-0.779,-0.258,-0.495,25.038,-241.740,-52.870,694043
-0.785,-0.275,-0.478,24.855,-238.443,-51.145,698055
-0.795,-0.289,-0.483,24.672,-234.443,-48.855,702066
-0.795,-0.302,-0.469,24.687,-229.863,-46.305,706077
-0.812,-0.303,-0.468,24.947,-224.443,-44.183,710088
-0.816,-0.302,-0.456,25.328,-220.031,-41.053,714099
-0.817,-0.294,-0.432,25.924,-216.534,-37.481,718106
-0.798,-0.287,-0.411,27.237,-213.282,-33.679,722117
-0.782,-0.295,-0.408,28.977,-210.519,-30.137,726128
-0.780,-0.284,-0.390,30.351,-208.534,-27.496,730139
-0.778,-0.291,-0.394,31.435,-208.000,-25.511,734150
-0.781,-0.286,-0.371,33.282,-207.267,-24.656,738161
-0.794,-0.284,-0.366,34.427,-206.870,-24.473,742171
-0.799,-0.295,-0.361,34.901,-206.504,-24.840,746183
-0.812,-0.298,-0.366,34.336,-204.916,-25.527,750193
-0.840,-0.303,-0.350,33.618,-202.504,-26.275,754204
-0.875,-0.320,-0.348,32.214,-199.115,-26.580,758216
-0.902,-0.325,-0.329,31.069,-195.267,-26.595,762227
-0.917,-0.331,-0.325,30.031,-190.565,-26.366,766238
-0.930,-0.326,-0.324,28.748,-185.053,-25.679,770249
-0.952,-0.325,-0.318,26.901,-178.992,-25.298,774260
-0.962,-0.330,-0.323,25.084,-172.779,-25.038,778272
-0.988,-0.337,-0.315,23.908,-166.000,-25.176,782283
-1.004,-0.331,-0.331,22.214,-159.435,-25.267,786294
-1.018,-0.335,-0.327,20.824,-152.992,-25.313,790305
-1.018,-0.341,-0.323,19.206,-146.748,-25.038,794316
-1.005,-0.332,-0.296,18.702,-140.733,-24.687,798330
-0.984,-0.337,-0.299,19.328,-135.573,-24.901,802341
-0.976,-0.328,-0.285,19.985,-130.641,-24.840,806352
-0.977,-0.335,-0.283,20.275,-126.611,-24.061,810363
-0.962,-0.350,-0.279,19.878,-124.565,-22.687,814374
-0.941,-0.358,-0.273,18.840,-119.710,-23.221,818385
-0.937,-0.342,-0.249,18.885,-116.473,-24.550,822397
-0.950,-0.327,-0.234,19.084,-114.260,-25.221,826407
-0.964,-0.332,-0.226,18.977,-111.038,-25.115,830418
-0.973,-0.333,-0.208,19.038,-107.939,-24.794,834429
-0.982,-0.336,-0.208,18.718,-103.939,-25.084,838440
-0.987,-0.347,-0.199,18.214,-98.931,-24.947,842451
-1.002,-0.347,-0.183,17.496,-94.931,-24.214,846462
-1.000,-0.343,-0.165,17.008,-89.771,-22.870,850473
-1.002,-0.345,-0.145,16.809,-84.824,-20.977,854484
-0.988,-0.345,-0.135,17.344,-80.656,-18.672,858495
-0.963,-0.352,-0.132,17.359,-77.298,-16.550,862506
-0.957,-0.353,-0.125,17.191,-74.687,-14.153,866518
-0.951,-0.359,-0.122,16.626,-72.794,-11.893,870529
-0.937,-0.360,-0.111,16.718,-71.802,-10.031,874540
-0.910,-0.366,-0.115,16.092,-71.084,-8.443,878548
-0.890,-0.365,-0.096,15.237,-71.115,-7.374,882560
-0.884,-0.364,-0.086,14.504,-71.328,-6.382,886570
-0.880,-0.372,-0.074,13.374,-71.786,-6.198,890581
-0.894,-0.375,-0.066,12.214,-71.313,-6.458,894592
-0.909,-0.382,-0.059,11.130,-70.458,-6.763,898604
-0.914,-0.380,-0.045,10.122,-68.687,-7.221,902615
-0.922,-0.373,-0.045,9.038,-65.756,-7.481,906627
-0.939,-0.366,-0.043,8.351,-62.122,-8.153,910638
-0.971,-0.367,-0.044,7.710,-58.046,-8.321,914649
-0.981,-0.366,-0.037,7.145,-54.244,-7.481,918661
-0.975,-0.373,-0.038,6.870,-50.290,-6.641,922682
-0.958,-0.373,-0.031,5.985,-46.366,-6.031,926693
-0.959,-0.390,-0.033,5.282,-42.901,-5.740,930704
-0.962,-0.392,-0.036,4.351,-39.664,-5.725,934715
-0.955,-0.396,-0.027,3.969,-37.359,-5.908,938727
-0.940,-0.391,-0.020,3.878,-35.588,-6.321,942742
-0.911,-0.381,-0.024,4.229,-34.229,-6.840,946753
-0.903,-0.372,-0.014,4.733,-32.901,-7.481,950764
-0.903,-0.374,-0.014,5.115,-30.656,-8.733,954775
-0.914,-0.379,-0.022,5.328,-30.061,-9.313,958786
-0.910,-0.392,-0.024,5.496,-28.580,-10.092,962798
-0.893,-0.382,-0.020,5.618,-26.015,-10.916,966809
-0.897,-0.377,-0.016,6.015,-23.725,-11.420,970821
-0.906,-0.386,-0.021,6.092,-21.496,-11.954,974832
-0.926,-0.397,-0.028,6.092,-19.557,-11.664,978843
-0.930,-0.388,-0.032,5.420,-17.740,-11.511,982853
-0.920,-0.393,-0.029,5.435,-16.214,-10.931,986864
-0.896,-0.395,-0.022,5.145,-14.977,-10.687,990875
-0.872,-0.405,-0.031,4.702,-14.183,-10.351,994886
-0.858,-0.415,-0.038,3.389,-13.221,-10.183,998897
-0.857,-0.429,-0.048,1.664,-11.786,-10.641,1002907
-0.874,-0.432,-0.039,-0.443,-9.878,-11.206,1006918
-0.895,-0.437,-0.046,-2.458,-7.573,-12.214,1010929
-0.903,-0.427,-0.030,-3.740,-4.947,-13.099,1014940
-0.909,-0.410,-0.030,-3.939,-2.458,-14.473,1018951
-0.913,-0.398,-0.036,-4.137,0.351,-14.901,1022971
-0.919,-0.396,-0.035,-4.351,3.115,-15.160,1026982
-0.924,-0.396,-0.050,-4.794,6.290,-14.840,1030994
-0.932,-0.414,-0.044,-5.420,9.710,-15.130,1035004
-0.929,-0.402,-0.047,-6.122,12.718,-15.130,1039015
-0.936,-0.406,-0.049,-6.427,16.366,-15.176,1043036
-0.955,-0.394,-0.056,-6.656,20.153,-15.359,1047047
-0.974,-0.393,-0.055,-6.977,24.458,-15.649,1051058
-0.969,-0.388,-0.066,-7.282,29.511,-15.725,1055069
-0.987,-0.397,-0.078,-8.122,35.023,-15.878,1059080
-0.989,-0.403,-0.086,-9.206,41.084,-15.740,1063092
-0.990,-0.410,-0.100,-10.763,47.450,-15.573,1067103
-0.989,-0.424,-0.109,-13.099,53.878,-15.023,1071114
-0.994,-0.426,-0.117,-16.000,60.763,-14.611,1075125
-0.989,-0.436,-0.139,-18.947,66.977,-14.321,1079136
-0.992,-0.444,-0.134,-21.786,73.191,-13.649,1083148
-0.995,-0.451,-0.156,-25.282,79.710,-13.313,1087159
-0.994,-0.464,-0.179,-29.908,86.351,-12.489,1091170
-0.999,-0.468,-0.187,-34.779,93.481,-12.061,1095181
-1.008,-0.477,-0.210,-40.748,101.420,-11.359,1099192
-1.032,-0.495,-0.224,-48.321,110.412,-10.534,1103213
-1.053,-0.501,-0.237,-55.924,119.832,-9.298,1107224
-1.071,-0.514,-0.241,-63.908,129.802,-7.771,1111236
-1.080,-0.514,-0.245,-71.771,139.069,-6.137,1115247
-1.077,-0.507,-0.244,-79.145,148.092,-4.153,1119258
-1.065,-0.491,-0.208,-83.924,155.573,-2.580,1123279
-1.046,-0.451,-0.192,-84.885,160.687,-0.763,1127290
-1.021,-0.411,-0.171,-82.794,163.847,1.160,1131301
-0.986,-0.378,-0.164,-76.916,164.992,2.458,1135312
-0.963,-0.353,-0.173,-69.603,166.412,3.893,1139323
-0.946,-0.345,-0.190,-62.473,168.565,5.115,1143341
-0.950,-0.343,-0.215,-55.695,171.298,6.076,1147353
-0.969,-0.346,-0.246,-49.847,174.931,6.916,1151364
-0.987,-0.347,-0.269,-44.947,179.573,9.206,1155376
-1.005,-0.353,-0.271,-40.794,185.069,13.069,1159387
-1.009,-0.343,-0.273,-37.023,191.191,17.664,1163398
-0.999,-0.339,-0.263,-33.939,197.496,23.313,1167409
-1.010,-0.340,-0.280,-31.053,204.550,30.366,1171420
-1.030,-0.348,-0.289,-29.511,211.725,38.977,1175431
-1.057,-0.351,-0.283,-28.260,219.817,48.840,1179442
-1.059,-0.362,-0.298,-28.885,228.595,59.038,1183453
-1.062,-0.385,-0.303,-31.725,237.695,68.427,1187464
-1.053,-0.421,-0.329,-35.863,246.458,76.214,1191475
-1.036,-0.462,-0.340,-41.695,254.656,81.832,1195486
-1.024,-0.496,-0.361,-49.237,262.656,85.023,1199497
-0.999,-0.530,-0.381,-58.137,270.183,86.107,1203507
-0.973,-0.548,-0.392,-68.443,277.038,85.618,1207518
-0.949,-0.561,-0.411,-79.802,283.496,84.794,1211529
-0.906,-0.557,-0.418,-91.435,288.611,83.282,1215540
-0.874,-0.558,-0.432,-102.794,292.702,81.115,1219552
-0.855,-0.552,-0.432,-113.664,295.878,78.336,1223567
-0.848,-0.542,-0.440,-123.924,298.214,75.679,1227578
-0.840,-0.531,-0.439,-133.450,300.748,74.336,1231589
-0.830,-0.500,-0.435,-141.771,303.405,74.229,1235600
-0.812,-0.471,-0.446,-148.183,305.038,74.183,1239611
-0.801,-0.432,-0.465,-151.924,305.817,74.168,1243631
-0.787,-0.392,-0.462,-152.443,304.107,74.076,1247643
-0.778,-0.347,-0.478,-150.504,301.420,73.557,1251654
-0.770,-0.301,-0.494,-146.656,298.290,72.885,1255664
-0.766,-0.260,-0.509,-141.710,294.550,72.092,1259675
-0.774,-0.227,-0.531,-135.344,291.863,72.092,1263696
-0.792,-0.211,-0.551,-128.229,289.527,73.038,1267707
-0.784,-0.188,-0.556,-119.527,285.710,74.947,1271718
-0.766,-0.174,-0.562,-109.878,281.557,77.527,1275729
-0.714,-0.150,-0.567,-100.244,276.824,80.397,1279740
-0.674,-0.131,-0.566,-90.870,272.504,84.275,1283752
-0.657,-0.143,-0.581,-81.847,268.305,90.198,1287763
-0.641,-0.148,-0.598,-73.542,263.771,97.374,1291773
-0.616,-0.156,-0.604,-66.290,258.962,105.115,1295784
-0.586,-0.158,-0.605,-60.214,253.664,111.542,1299795
-0.550,-0.151,-0.626,-55.313,248.076,116.565,1303806
-0.532,-0.137,-0.654,-51.328,243.176,119.969,1307816
-0.521,-0.108,-0.683,-47.863,238.168,121.573,1311827
-0.528,-0.086,-0.708,-44.076,233.756,120.870,1315838
-0.562,-0.066,-0.740,-40.489,229.954,118.214,1319849
-0.600,-0.048,-0.770,-37.053,228.000,114.397,1323869
-0.654,-0.042,-0.794,-34.656,227.817,110.458,1327881
-0.686,-0.048,-0.793,-33.817,229.771,107.374,1331892
-0.711,-0.068,-0.816,-33.817,233.206,104.855,1335903
-0.708,-0.091,-0.832,-34.046,237.924,102.336,1339917
-0.698,-0.108,-0.825,-35.221,242.718,100.412,1343928
-0.670,-0.132,-0.833,-37.145,247.496,98.931,1347939
-0.625,-0.134,-0.829,-39.084,251.603,98.351,1351951
-0.559,-0.133,-0.829,-41.634,254.947,98.473,1355961
-0.483,-0.129,-0.823,-44.336,256.565,99.374,1359972
-0.401,-0.123,-0.823,-47.435,257.603,100.336,1363983
-0.312,-0.108,-0.820,-50.580,256.641,100.687,1367995
-0.238,-0.080,-0.813,-53.588,253.924,100.107,1372006
-0.176,-0.057,-0.825,-56.397,249.649,98.290,1376018
-0.139,-0.037,-0.827,-58.336,244.580,96.061,1380029
-0.135,-0.024,-0.850,-60.443,239.542,93.832,1384040
-0.129,0.002,-0.842,-60.885,235.053,91.466,1388052
-0.127,0.026,-0.854,-60.198,230.656,89.053,1392063
-0.135,0.052,-0.867,-58.550,226.595,86.504,1396075
-0.146,0.077,-0.892,-55.817,222.656,83.786,1400086
-0.157,0.094,-0.905,-52.519,218.687,80.687,1404097
-0.169,0.103,-0.931,-48.595,214.870,77.588,1408108
-0.188,0.103,-0.946,-43.817,210.947,74.504,1412119
-0.202,0.112,-0.972,-39.664,207.954,71.939,1416130
-0.214,0.107,-0.970,-35.786,205.038,69.710,1420141
-0.205,0.097,-0.971,-32.000,202.397,68.458,1424153
-0.188,0.093,-0.967,-27.954,201.115,67.053,1428161
-0.193,0.091,-0.975,-24.015,200.290,67.573,1432172
-0.174,0.084,-0.988,-20.443,198.397,69.069,1436183
-0.139,0.085,-0.984,-17.863,196.458,69.588,1440194
-0.100,0.079,-0.982,-15.481,193.771,69.832,1444205
-0.044,0.081,-0.973,-13.649,191.359,70.412,1448219
-0.005,0.079,-0.971,-12.244,188.366,71.939,1452230
0.036,0.081,-0.975,-10.824,185.267,73.817,1456241
0.080,0.081,-0.974,-9.817,180.122,75.053,1460252
0.122,0.090,-0.981,-9.282,174.473,75.374,1464263
0.158,0.089,-0.986,-9.023,168.305,74.351,1468275
0.181,0.090,-1.004,-8.580,161.664,73.115,1472286
0.184,0.098,-1.020,-7.832,155.603,71.756,1476297
0.184,0.098,-1.032,-6.427,149.832,69.588,1480308
0.165,0.100,-1.039,-5.160,144.336,66.962,1484319
0.163,0.101,-1.070,-3.695,139.466,64.122,1488331
0.143,0.097,-1.073,-2.198,134.947,61.099,1492342
0.139,0.084,-1.075,-1.374,131.160,58.611,1496353
0.138,0.076,-1.092,-0.687,127.725,56.153,1500364
0.137,0.064,-1.093,0.198,124.229,54.137,1504375
0.142,0.058,-1.083,0.870,121.481,52.244,1508385
0.156,0.051,-1.086,1.130,119.008,50.809,1512397
0.168,0.049,-1.086,0.550,116.092,49.817,1516407
0.191,0.042,-1.083,-0.198,113.389,49.099,1520418
0.216,0.039,-1.082,-1.328,110.137,48.427,1524429
0.249,0.038,-1.090,-3.450,106.305,48.458,1528440
0.276,0.024,-1.083,-6.168,101.771,48.687,1532451
0.318,0.020,-1.072,-8.855,97.160,49.023,1536462
0.347,0.015,-1.090,-11.389,91.756,49.115,1540473
0.361,0.025,-1.075,-14.046,86.046,48.809,1544484
0.376,0.032,-1.080,-16.382,79.847,48.198,1548495
0.376,0.045,-1.094,-18.565,73.359,47.191,1552506
0.371,0.060,-1.115,-19.679,67.603,45.557,1556518
0.368,0.071,-1.120,-20.489,61.924,42.962,1560529
0.352,0.082,-1.127,-20.275,57.756,39.985,1564540
0.320,0.098,-1.131,-19.389,54.000,37.557,1568548
0.291,0.093,-1.135,-18.183,51.527,35.359,1572560
0.273,0.111,-1.146,-15.313,49.420,32.397,1576570
0.251,0.108,-1.162,-13.069,47.924,29.908,1580581
0.239,0.123,-1.170,-9.786,47.588,26.092,1584592
0.218,0.125,-1.180,-6.763,47.985,22.061,1588604
0.184,0.128,-1.186,-3.740,48.168,20.336,1592615
0.172,0.113,-1.194,-0.901,49.740,19.969,1596627
0.186,0.101,-1.189,1.969,50.260,19.969,1600638
0.212,0.089,-1.191,4.168,50.198,18.992,1604649
0.239,0.084,-1.189,5.847,49.450,18.305,1608661
0.259,0.075,-1.196,7.023,48.321,17.786,1612682
0.271,0.073,-1.182,7.527,47.115,17.695,1616693
0.284,0.060,-1.185,7.679,45.084,17.725,1620704
0.300,0.044,-1.197,7.267,42.443,17.420,1624715
0.307,0.036,-1.197,6.168,40.015,16.809,1628727
0.324,0.022,-1.182,4.611,37.115,16.000,1632742
0.343,0.021,-1.186,2.931,34.229,15.618,1636753
0.353,0.027,-1.181,0.824,31.099,15.115,1640764
0.356,0.009,-1.192,-2.015,27.603,14.748,1644775
0.357,0.003,-1.194,-4.580,23.450,14.397,1648786
0.351,-0.001,-1.194,-6.840,19.985,14.305,1652798
0.347,0.002,-1.183,-8.962,16.947,13.893,1656809
0.338,0.024,-1.187,-10.290,13.908,13.481,1660821
0.334,0.027,-1.183,-11.282,11.573,12.916,1664832
0.323,0.032,-1.177,-11.420,9.634,12.000,1668843
0.313,0.042,-1.176,-11.328,8.000,10.947,1672853
0.309,0.052,-1.175,-10.870,6.550,9.832,1676864
0.305,0.061,-1.163,-10.366,4.931,8.611,1680875
0.299,0.061,-1.172,-9.847,3.847,7.282,1684886
0.291,0.056,-1.162,-9.496,3.084,6.046,1688897
0.283,0.071,-1.154,-8.672,2.229,4.595,1692907
0.281,0.065,-1.165,-7.756,1.328,3.450,1696918
0.267,0.063,-1.154,-6.916,1.252,2.336,1700929
0.256,0.055,-1.148,-6.458,0.794,1.740,1704941
0.250,0.051,-1.144,-6.092,1.221,1.176,1708952
0.235,0.049,-1.136,-5.786,1.924,1.115,1712971
0.230,0.047,-1.143,-5.679,2.748,1.359,1716982
0.228,0.049,-1.142,-5.771,3.420,1.969,1720993
0.225,0.036,-1.141,-5.664,4.031,1.878,1725004
0.242,0.036,-1.131,-5.588,4.504,1.359,1729015
0.243,0.045,-1.120,-5.695,4.733,1.008,1733036
0.244,0.042,-1.129,-5.313,5.313,0.412,1737047
0.250,0.042,-1.129,-5.756,5.710,0.015,1741059
0.242,0.040,-1.122,-6.244,6.214,-0.458,1745070
0.246,0.034,-1.118,-6.397,6.366,-0.962,1749081
0.254,0.034,-1.115,-6.580,6.626,-1.756,1753093
0.258,0.032,-1.117,-6.489,6.275,-2.351,1757104
0.254,0.036,-1.115,-6.412,6.153,-2.763,1761115
0.259,0.030,-1.109,-6.290,5.649,-3.618,1765126
0.262,0.030,-1.104,-6.122,4.947,-4.031,1769137
0.257,0.040,-1.109,-5.878,4.885,-5.099,1773147
0.246,0.043,-1.109,-5.695,4.351,-5.542,1777158
0.247,0.038,-1.113,-5.313,4.458,-5.954,1781169
0.229,0.039,-1.111,-4.916,5.023,-5.893,1785180
0.225,0.033,-1.108,-4.718,5.496,-5.298,1789191
0.220,0.029,-1.108,-4.733,6.107,-4.336,1793211
0.224,0.031,-1.106,-5.053,6.855,-3.588,1797223
0.235,0.041,-1.109,-5.740,6.885,-2.595,1801233
0.233,0.032,-1.104,-6.412,6.885,-1.603,1805244
0.242,0.044,-1.104,-7.588,6.855,-0.763,1809255
0.238,0.040,-1.109,-8.305,6.031,-0.290,1813275
0.240,0.041,-1.103,-8.748,5.115,0.046,1817286
0.244,0.041,-1.104,-9.069,4.336,0.565,1821297
0.243,0.051,-1.111,-9.588,3.756,0.473,1825309
0.250,0.058,-1.108,-9.954,2.809,0.611,1829320
0.251,0.057,-1.101,-10.290,2.290,0.504,1833338
0.248,0.056,-1.104,-10.229,1.389,0.351,1837349
0.249,0.063,-1.104,-9.740,0.763,0.183,1841360
0.244,0.074,-1.101,-8.916,0.153,-0.168,1845372
0.241,0.075,-1.101,-8.092,-0.305,-0.046,1849383
0.246,0.073,-1.095,-7.405,-0.824,0.092,1853394
0.239,0.079,-1.096,-7.069,-0.931,0.031,1857405
0.241,0.075,-1.101,-6.809,-0.962,0.214,1861416
0.237,0.078,-1.103,-6.229,-0.809,-0.031,1865427
0.238,0.076,-1.107,-5.679,-0.565,-0.061,1869438
0.231,0.083,-1.110,-4.885,-0.305,0.031,1873449
0.232,0.084,-1.105,-3.954,0.046,-0.198,1877460
0.226,0.082,-1.101,-3.206,0.702,-0.260,1881471
0.227,0.088,-1.113,-2.702,1.191,-0.412,1885482
0.225,0.082,-1.104,-2.473,2.015,-0.672,1889493
0.224,0.077,-1.105,-2.458,3.191,-1.038,1893504
0.221,0.080,-1.100,-2.275,4.061,-1.389,1897514
0.230,0.079,-1.108,-2.382,5.084,-1.221,1901525
0.232,0.071,-1.109,-2.275,5.695,-1.267,1905536
0.235,0.077,-1.114,-2.366,6.321,-1.466,1909547
0.241,0.068,-1.111,-2.916,6.565,-1.282,1913556
0.246,0.070,-1.121,-3.435,6.443,-1.725,1917567
0.252,0.063,-1.114,-4.015,6.305,-1.847,1921578
0.252,0.061,-1.111,-4.550,5.847,-1.557,1925590
0.258,0.067,-1.117,-4.840,5.313,-1.802,1929601
0.254,0.069,-1.119,-4.748,4.641,-2.046,1933620
0.260,0.064,-1.118,-4.809,4.382,-2.092,1937631
0.254,0.074,-1.115,-4.550,3.924,-2.275,1941642
0.251,0.078,-1.114,-4.550,3.435,-2.504,1945653
0.255,0.070,-1.115,-4.794,3.527,-2.321,1949664
0.249,0.069,-1.117,-4.794,3.237,-2.519,1953685
0.244,0.063,-1.118,-5.160,3.542,-2.092,1957696
0.236,0.065,-1.116,-5.389,3.679,-1.344,1961707
0.255,0.059,-1.126,-5.695,3.389,-0.504,1965718
0.259,0.062,-1.122,-6.198,3.496,0.168,1969729
0.268,0.059,-1.115,-6.733,2.840,0.458,1973742
0.269,0.058,-1.121,-7.466,2.214,0.840,1977753
0.268,0.050,-1.119,-7.802,1.160,0.962,1981764
0.269,0.063,-1.131,-8.229,0.427,0.733,1985775
0.260,0.066,-1.124,-8.092,-0.473,0.626,1989786
0.261,0.069,-1.116,-7.817,-1.023,0.290,1993796
0.254,0.072,-1.127,-7.634,-1.695,-0.137,1997807
0.247,0.069,-1.122,-7.542,-1.832,-0.534,2001818
