acc_x,acc_y,acc_z,gyro_x,gyro_y,gyro_z,time
0.312,-0.091,-1.101,-2.595,4.061,-2.885,0
0.313,-0.098,-1.104,-2.290,4.718,-2.672,4047
0.318,-0.094,-1.100,-1.954,5.145,-2.473,8060
0.320,-0.099,-1.099,-1.939,4.733,-2.321,12071
0.316,-0.104,-1.102,-1.710,3.786,-2.137,16082
0.309,-0.101,-1.098,-1.664,2.641,-2.153,20093
0.314,-0.099,-1.095,-1.634,2.412,-2.122,24104
0.318,-0.099,-1.101,-1.542,1.969,-2.107,28115
0.321,-0.095,-1.096,-1.466,1.771,-2.336,32126
0.316,-0.098,-1.098,-1.771,0.916,-2.519,36137
0.309,-0.101,-1.098,-2.000,1.038,-2.718,40148
0.317,-0.100,-1.105,-2.305,0.779,-2.656,44159
0.309,-0.105,-1.102,-2.580,0.489,-2.931,48167
0.312,-0.099,-1.109,-2.962,0.153,-2.977,52178
0.308,-0.101,-1.106,-3.298,-0.504,-2.947,56189
0.313,-0.102,-1.108,-3.756,-0.672,-3.053,60200
0.308,-0.097,-1.101,-3.817,-1.160,-3.176,64211
0.313,-0.088,-1.107,-3.985,-1.389,-3.344,68222
0.312,-0.095,-1.117,-4.046,-1.481,-3.298,72233
0.313,-0.094,-1.125,-4.046,-1.603,-3.206,76244
0.305,-0.084,-1.113,-3.832,-1.588,-3.221,80255
0.302,-0.089,-1.111,-3.496,-1.481,-3.023,84266
0.301,-0.080,-1.109,-3.359,-1.466,-3.221,88277
0.299,-0.083,-1.123,-2.885,-1.542,-2.870,92288
0.298,-0.084,-1.117,-2.397,-1.603,-2.855,96299
0.291,-0.073,-1.111,-1.954,-1.115,-2.489,100310
0.294,-0.075,-1.119,-1.420,-0.382,-2.382,104321
0.291,-0.081,-1.111,-0.947,0.260,-2.107,108334
0.294,-0.086,-1.112,-0.382,1.084,-1.863,112345
0.289,-0.082,-1.114,-0.153,2.122,-1.466,116356
0.288,-0.080,-1.119,0.260,3.588,-1.038,120367
0.291,-0.086,-1.107,0.565,4.214,-0.550,124378
0.292,-0.091,-1.116,0.840,4.641,-0.183,128389
0.296,-0.090,-1.107,0.992,5.176,0.534,132400
0.294,-0.097,-1.106,1.069,5.496,0.763,136411
0.302,-0.103,-1.105,1.023,5.756,1.496,140422
0.303,-0.108,-1.110,0.672,6.122,1.817,144433
0.311,-0.109,-1.108,0.321,6.260,2.031,148444
0.308,-0.112,-1.107,-0.229,5.878,2.260,152455
0.310,-0.115,-1.109,-0.870,5.359,2.275,156466
0.314,-0.110,-1.097,-1.481,4.397,2.412,160477
0.323,-0.111,-1.105,-1.832,3.542,2.168,164488
0.328,-0.114,-1.105,-2.229,3.008,2.122,168499
0.326,-0.115,-1.102,-2.550,2.366,1.847,172510
0.325,-0.115,-1.112,-3.008,2.015,1.924,176521
0.327,-0.113,-1.104,-3.221,1.160,1.496,180533
0.319,-0.108,-1.109,-3.389,0.092,1.298,184544
0.312,-0.111,-1.112,-3.313,-1.450,0.870,188554
0.315,-0.111,-1.111,-3.313,-1.985,0.855,192565
0.320,-0.111,-1.113,-3.282,-2.595,0.321,196577
0.310,-0.112,-1.113,-3.130,-4.595,0.031,200588
0.312,-0.115,-1.110,-2.992,-4.763,-0.229,204599
0.305,-0.115,-1.114,-2.977,-3.969,-0.122,208611
0.307,-0.116,-1.106,-3.099,-2.595,-0.015,212622
0.303,-0.120,-1.115,-3.008,-0.824,0.229,216634
0.312,-0.112,-1.109,-3.008,0.275,0.321,220645
0.310,-0.120,-1.109,-3.069,1.954,0.519,224656
0.308,-0.117,-1.111,-2.794,2.595,0.458,228668
0.310,-0.120,-1.114,-2.870,3.878,0.824,232687
0.312,-0.118,-1.111,-3.145,4.992,0.763,236698
0.308,-0.124,-1.109,-3.053,5.389,0.748,240709
0.313,-0.124,-1.117,-2.855,5.328,0.672,244720
0.322,-0.117,-1.108,-2.931,5.191,0.473,248733
0.319,-0.110,-1.107,-2.718,4.840,0.351,252744
0.319,-0.109,-1.115,-2.794,4.473,0.229,256755
0.319,-0.113,-1.114,-2.656,3.588,-0.046,260766
0.320,-0.110,-1.109,-2.824,2.824,-0.412,264777
0.313,-0.113,-1.113,-2.931,2.611,-0.321,268790
0.318,-0.119,-1.117,-2.687,2.458,-0.458,272801
0.318,-0.117,-1.116,-2.779,2.092,-0.336,276812
0.323,-0.114,-1.119,-3.053,1.725,-0.382,280824
0.325,-0.110,-1.125,-3.374,1.344,-0.443,284835
0.326,-0.121,-1.114,-3.374,1.603,-0.168,288846
0.319,-0.115,-1.117,-3.481,1.374,-0.107,292856
0.325,-0.113,-1.115,-3.603,0.427,-0.092,296868
0.320,-0.109,-1.113,-3.573,-0.153,-0.137,300879
0.321,-0.107,-1.119,-3.557,-0.748,-0.046,304890
0.322,-0.110,-1.122,-3.435,-0.962,0.122,308902
0.320,-0.107,-1.124,-3.359,-1.099,-0.122,312912
0.322,-0.112,-1.126,-3.145,-1.527,-0.122,316922
0.326,-0.114,-1.122,-2.916,-1.695,-0.198,320933
0.319,-0.111,-1.121,-2.870,-1.710,-0.260,324944
0.323,-0.114,-1.136,-2.809,-1.924,-0.489,328955
0.327,-0.115,-1.124,-2.718,-2.015,-0.611,332975
0.322,-0.111,-1.131,-2.748,-1.985,-0.947,336986
0.323,-0.111,-1.127,-3.023,-1.603,-1.237,340998
0.324,-0.118,-1.132,-3.221,-1.908,-1.893,345009
0.310,-0.115,-1.123,-3.603,-2.534,-2.458,349020
0.310,-0.119,-1.130,-3.893,-1.985,-2.794,353041
0.303,-0.115,-1.120,-4.046,-1.252,-3.252,357053
0.305,-0.117,-1.125,-4.550,0.061,-3.695,361063
0.310,-0.111,-1.130,-4.779,1.328,-4.092,365074
0.307,-0.110,-1.122,-4.901,2.656,-4.260,369085
0.313,-0.111,-1.115,-5.176,3.802,-4.366,373099
0.307,-0.107,-1.122,-5.527,4.489,-4.336,377110
0.326,-0.105,-1.120,-5.389,6.977,-3.771,381121
0.319,-0.106,-1.119,-5.649,6.931,-3.969,385132
0.325,-0.107,-1.120,-5.710,6.366,-3.405,389143
0.330,-0.105,-1.133,-6.031,4.947,-3.313,393155
0.331,-0.109,-1.128,-6.076,2.748,-3.206,397166
0.329,-0.107,-1.117,-6.260,0.824,-3.221,401177
0.325,-0.110,-1.121,-6.321,-1.878,-3.160,405188
0.322,-0.104,-1.115,-6.290,-2.977,-2.962,409199
0.315,-0.103,-1.122,-6.107,-5.420,-2.916,413220
0.311,-0.101,-1.118,-5.939,-8.244,-3.252,417231
0.304,-0.091,-1.114,-5.893,-8.504,-3.069,421242
0.302,-0.096,-1.111,-5.603,-8.947,-3.450,425253
0.292,-0.093,-1.111,-5.191,-7.908,-3.038,429264
0.280,-0.094,-1.109,-4.947,-7.115,-2.931,433285
0.290,-0.088,-1.105,-4.733,-6.000,-3.053,437296
0.281,-0.088,-1.106,-4.718,-3.817,-2.779,441307
0.286,-0.091,-1.094,-4.443,-1.237,-2.672,445318
0.284,-0.093,-1.110,-4.275,0.870,-2.550,449329
0.280,-0.090,-1.105,-4.015,2.641,-2.504,453347
0.288,-0.091,-1.107,-3.817,3.832,-2.275,457358
0.293,-0.100,-1.104,-3.863,5.557,-2.061,461369
0.294,-0.100,-1.102,-3.740,7.878,-1.527,465381
0.304,-0.100,-1.105,-3.802,8.656,-1.252,469392
0.311,-0.102,-1.102,-3.786,8.916,-1.008,473403
0.312,-0.096,-1.115,-3.573,8.305,-0.916,477414
0.323,-0.097,-1.109,-3.298,7.313,-0.992,481425
0.327,-0.093,-1.111,-3.542,6.382,-1.038,485436
0.323,-0.096,-1.107,-3.328,3.802,-1.145,489447
0.326,-0.103,-1.112,-3.298,1.344,-1.344,493458
0.325,-0.102,-1.115,-3.374,-0.855,-1.405,497470
0.326,-0.107,-1.107,-3.298,-1.771,-1.557,501481
0.332,-0.102,-1.105,-3.374,-3.191,-1.802,505493
0.319,-0.101,-1.112,-3.298,-5.405,-1.863,509504
0.316,-0.098,-1.107,-3.130,-6.931,-2.244,513514
0.313,-0.098,-1.106,-2.916,-7.405,-2.519,517525
0.304,-0.094,-1.100,-2.534,-7.267,-2.672,521536
0.297,-0.092,-1.105,-2.336,-7.115,-2.718,525547
0.296,-0.092,-1.099,-1.939,-7.252,-2.855,529558
0.293,-0.093,-1.103,-1.634,-6.305,-2.473,533569
0.292,-0.095,-1.090,-1.313,-4.092,-2.443,537580
0.298,-0.089,-1.090,-0.916,-2.000,-2.168,541591
0.300,-0.095,-1.088,-0.351,-0.351,-1.786,545602
0.290,-0.090,-1.090,0.031,0.305,-1.679,549613
0.299,-0.090,-1.093,0.809,1.649,-1.191,553633
0.296,-0.085,-1.093,1.405,3.511,-0.733,557645
0.297,-0.089,-1.091,1.924,3.588,-0.550,561656
0.299,-0.094,-1.097,2.565,2.870,-0.595,565667
0.310,-0.092,-1.092,2.901,1.939,-0.443,569678
0.317,-0.098,-1.088,3.176,1.985,-0.412,573699
0.320,-0.095,-1.091,3.359,1.710,-0.092,577710
0.320,-0.100,-1.087,3.695,1.099,-0.046,581721
0.319,-0.102,-1.099,4.046,0.061,-0.107,585732
0.330,-0.100,-1.095,4.550,-0.824,-0.305,589743
0.322,-0.097,-1.090,4.962,-2.046,-0.305,593753
0.325,-0.099,-1.097,5.191,-3.557,-0.504,597764
0.333,-0.099,-1.093,5.695,-5.053,-0.840,601775
0.341,-0.102,-1.104,6.046,-6.947,-0.992,605786
0.341,-0.099,-1.101,6.702,-8.260,-0.992,609798
0.343,-0.098,-1.112,7.069,-9.450,-1.038,613808
0.351,-0.106,-1.105,7.527,-10.733,-0.824,617818
0.356,-0.106,-1.110,8.275,-12.763,-0.824,621829
0.358,-0.111,-1.115,8.733,-14.794,-0.901,625840
0.354,-0.111,-1.122,9.359,-17.221,-1.084,629851
0.356,-0.111,-1.125,9.252,-20.198,-1.344,633871
0.362,-0.114,-1.129,10.076,-23.435,-1.267,637884
0.356,-0.108,-1.125,10.275,-26.748,-1.863,641894
0.358,-0.106,-1.137,11.038,-28.992,-1.893,645905
0.349,-0.102,-1.145,11.099,-32.702,-2.015,649917
0.343,-0.101,-1.151,11.573,-35.695,-1.893,653928
0.347,-0.103,-1.158,11.969,-38.366,-1.847,657939
0.353,-0.101,-1.154,12.458,-41.053,-2.427,661950
0.363,-0.098,-1.159,13.130,-43.954,-2.931,665961
0.353,-0.094,-1.161,13.573,-47.374,-3.435,669972
0.353,-0.094,-1.168,14.107,-50.718,-4.427,673983
0.355,-0.090,-1.165,14.321,-54.153,-5.069,677995
0.343,-0.094,-1.173,14.565,-57.710,-5.786,682006
0.348,-0.089,-1.164,14.840,-61.053,-6.153,686018
0.366,-0.090,-1.180,15.160,-63.985,-6.779,690029
0.373,-0.093,-1.177,15.481,-66.947,-7.145,694040
0.390,-0.101,-1.172,15.298,-69.176,-7.588,698052
0.421,-0.108,-1.172,14.214,-72.779,-8.443,702063
0.426,-0.113,-1.169,12.824,-78.153,-9.573,706075
0.452,-0.127,-1.179,11.130,-85.405,-9.740,710085
0.474,-0.130,-1.184,8.489,-95.267,-6.397,714096
0.477,-0.146,-1.182,5.023,-109.893,-6.534,718103
0.484,-0.151,-1.177,1.344,-128.351,-6.489,722114
0.484,-0.153,-1.179,-1.985,-146.672,-6.550,726125
0.474,-0.146,-1.177,-4.947,-169.160,-6.489,730136
0.465,-0.139,-1.168,-7.115,-192.122,-6.641,734147
0.445,-0.133,-1.133,-9.710,-208.321,-6.275,738154
0.410,-0.120,-1.142,-11.603,-234.489,-6.809,742165
0.372,-0.113,-1.121,-13.206,-256.672,-7.328,746176
0.317,-0.089,-1.106,-13.496,-275.084,-7.313,750187
0.244,-0.075,-1.085,-14.427,-292.076,-7.115,754198
0.185,-0.052,-1.060,-14.962,-302.611,-7.359,758210
0.127,-0.040,-1.042,-14.672,-313.359,-5.679,762220
0.093,-0.038,-1.013,-14.550,-320.962,1.405,766231
0.024,-0.033,-1.003,-15.191,-325.267,7.420,770242
-0.055,-0.027,-0.973,-14.656,-326.351,8.962,774253
-0.128,-0.052,-0.943,-12.931,-319.954,9.374,778265
-0.162,-0.003,-0.941,-17.588,-308.916,5.969,782276
-0.223,0.027,-0.927,-21.298,-297.542,-4.168,786288
-0.279,0.042,-0.924,-23.313,-290.840,-21.008,790298
-0.267,0.029,-0.957,-31.756,-282.534,-37.466,794309
-0.312,0.005,-0.885,-31.634,-275.008,-47.588,798320
-0.352,-0.049,-0.838,-22.412,-268.275,-46.962,802331
-0.385,-0.071,-0.836,-15.954,-257.328,-45.939,806342
-0.382,-0.094,-0.843,-8.366,-245.420,-46.809,810354
-0.356,-0.103,-0.914,-2.733,-239.160,-46.947,814365
-0.366,-0.094,-0.876,-6.855,-233.008,-53.802,818376
-0.361,-0.105,-0.927,-3.878,-228.076,-51.282,822387
-0.363,-0.121,-0.923,-2.275,-229.038,-47.374,826398
-0.387,-0.146,-0.904,4.611,-223.847,-45.328,830410
-0.406,-0.162,-0.992,5.710,-233.023,-47.069,834421
-0.437,-0.197,-0.930,13.588,-240.580,-45.985,838431
-0.432,-0.199,-0.982,20.366,-246.244,-44.550,842442
-0.422,-0.186,-1.006,23.405,-246.397,-44.107,846453
-0.420,-0.201,-1.012,29.725,-245.817,-42.992,850464
-0.401,-0.219,-1.036,36.473,-246.947,-39.847,854475
-0.388,-0.236,-1.009,42.137,-237.603,-36.366,858486
-0.408,-0.243,-1.018,48.962,-228.198,-35.420,862498
-0.441,-0.271,-1.027,56.107,-222.550,-36.870,866509
-0.462,-0.308,-1.024,60.931,-216.183,-35.527,870520
-0.495,-0.338,-1.035,66.992,-212.244,-34.931,874531
-0.506,-0.348,-1.053,72.366,-208.733,-34.824,878542
-0.513,-0.363,-1.053,75.252,-200.947,-36.718,882553
-0.516,-0.379,-1.062,78.260,-195.695,-39.267,886564
-0.507,-0.412,-1.077,80.641,-189.710,-38.412,890576
-0.496,-0.371,-1.206,66.794,-172.824,-49.573,894587
-0.574,-0.407,-1.117,64.641,-170.718,-58.244,898599
-0.582,-0.458,-1.151,60.260,-168.290,-56.947,902609
-0.622,-0.436,-1.124,53.099,-149.710,-44.687,906620
-0.658,-0.432,-1.156,46.519,-147.756,-46.092,910631
-0.676,-0.419,-1.155,39.695,-142.672,-44.015,914642
-0.720,-0.386,-1.151,33.008,-133.176,-43.710,918653
-0.741,-0.374,-1.176,27.557,-126.916,-39.282,922674
-0.783,-0.338,-1.157,21.802,-115.450,-37.252,926685
-0.808,-0.322,-1.168,16.580,-107.954,-36.321,930696
-0.818,-0.309,-1.144,11.389,-97.618,-35.985,934707
-0.817,-0.295,-1.120,4.137,-82.534,-35.344,938719
-0.785,-0.299,-1.140,2.443,-65.603,-30.947,942732
-0.754,-0.269,-1.125,0.305,-53.038,-23.038,946743
-0.724,-0.238,-1.094,-2.916,-31.649,-19.832,950754
-0.706,-0.224,-1.107,-5.160,-19.481,-14.351,954765
-0.705,-0.201,-1.088,-5.481,-11.954,-9.267,958777
-0.691,-0.189,-1.063,-4.992,-7.481,-2.031,962788
-0.697,-0.178,-1.041,-5.160,-5.160,7.160,966799
-0.719,-0.142,-1.083,-6.244,-11.374,3.176,970811
-0.727,-0.125,-1.083,-4.885,-20.550,3.939,974822
-0.701,-0.131,-1.015,-7.282,-24.489,9.725,978833
-0.707,-0.106,-1.017,-6.336,-27.740,11.206,982843
-0.700,-0.103,-0.987,-4.870,-31.374,11.191,986854
-0.700,-0.109,-0.945,-7.740,-23.282,11.603,990865
-0.706,-0.104,-0.901,-12.061,-11.603,8.412,994877
-0.598,-0.159,-1.083,-6.534,8.702,8.351,998888
-0.652,-0.124,-0.914,-11.542,15.344,8.473,1002899
-0.637,-0.134,-0.835,-11.878,41.450,10.672,1006909
-0.616,-0.140,-0.891,-14.153,52.046,11.130,1010920
-0.614,-0.169,-0.841,-8.855,62.870,12.427,1014931
-0.583,-0.163,-0.864,-10.595,80.244,8.397,1018942
-0.524,-0.217,-0.890,-1.679,86.290,14.076,1022963
-0.495,-0.202,-0.888,5.695,87.099,19.053,1026974
-0.492,-0.170,-0.845,-0.947,94.687,8.656,1030985
-0.473,-0.220,-0.858,3.679,87.435,19.618,1034996
-0.562,-0.217,-0.668,-7.863,68.550,17.206,1039007
-0.454,-0.240,-0.811,-3.649,87.786,26.672,1043028
-0.474,-0.228,-0.936,-7.969,64.824,26.214,1047039
-0.478,-0.236,-0.823,-24.916,73.908,16.870,1051050
-0.497,-0.234,-0.871,-25.374,63.527,17.160,1055061
-0.455,-0.241,-0.836,-28.763,55.832,18.809,1059072
-0.479,-0.217,-0.804,-34.321,80.931,18.794,1063084
-0.483,-0.215,-0.839,-34.061,76.885,24.183,1067095
-0.506,-0.172,-0.844,-37.893,81.847,20.031,1071106
-0.528,-0.125,-0.883,-50.244,96.321,5.405,1075117
-0.566,-0.152,-0.845,-47.496,97.435,4.351,1079128
-0.562,-0.124,-0.856,-52.458,109.206,-1.420,1083138
-0.643,-0.182,-0.755,-49.435,115.725,2.382,1087149
-0.670,-0.135,-0.792,-46.779,121.649,0.107,1091160
-0.593,-0.108,-0.817,-46.947,137.878,-1.145,1095172
-0.632,-0.116,-0.779,-44.305,150.672,-5.450,1099183
-0.619,-0.127,-0.802,-41.466,161.466,-10.336,1103203
-0.707,-0.162,-0.667,-36.947,173.542,-13.985,1107213
-0.419,-0.326,-0.680,-20.641,199.634,11.679,1111224
-0.466,-0.176,-0.768,-11.511,222.198,9.160,1115235
-0.430,-0.169,-0.832,-9.466,243.466,7.237,1119246
-0.418,-0.165,-0.812,-1.573,252.916,3.725,1123266
-0.359,-0.173,-0.839,5.924,263.038,8.947,1127277
-0.391,-0.167,-0.920,9.267,274.947,14.458,1131288
-0.346,-0.144,-0.927,16.595,272.779,18.809,1135299
-0.308,-0.146,-0.884,31.206,266.229,25.634,1139310
-0.266,-0.132,-0.894,30.611,264.107,29.634,1143330
-0.268,-0.091,-0.889,35.924,268.244,29.191,1147340
-0.233,-0.100,-0.961,40.962,253.450,36.412,1151351
-0.268,-0.033,-0.979,32.992,261.450,30.672,1155362
-0.288,-0.050,-1.010,28.489,257.786,22.275,1159373
-0.319,-0.051,-0.985,10.092,256.260,-14.519,1163384
-0.302,-0.095,-0.969,15.435,258.687,-10.763,1167395
-0.208,-0.105,-1.054,4.183,277.252,-14.962,1171406
-0.199,-0.153,-0.983,12.489,282.015,-19.099,1175417
-0.084,-0.162,-1.013,15.420,289.740,-31.557,1179428
-0.008,-0.212,-0.906,13.740,306.275,-50.931,1183440
0.153,-0.366,-0.908,3.817,329.740,-58.443,1187451
0.198,-0.244,-1.080,-12.565,316.031,-66.763,1191462
0.222,-0.398,-1.136,-15.863,294.244,-34.260,1195473
0.297,-0.453,-1.088,-24.672,280.351,5.130,1199484
0.185,-0.403,-1.118,-33.817,259.328,3.405,1203495
0.169,-0.412,-1.144,-39.160,225.878,2.412,1207505
0.160,-0.405,-1.179,-44.519,176.580,-0.046,1211516
0.169,-0.402,-1.168,-49.206,133.221,-2.107,1215527
0.157,-0.372,-1.172,-53.939,95.450,-3.176,1219538
0.178,-0.353,-1.149,-58.947,72.901,-1.847,1223553
0.167,-0.325,-1.135,-64.122,60.031,0.702,1227565
0.150,-0.290,-1.106,-68.183,48.809,2.931,1231575
0.156,-0.270,-1.063,-68.733,51.145,13.099,1235586
0.161,-0.232,-1.073,-68.412,55.969,43.771,1239598
0.045,-0.171,-1.054,-66.443,63.756,45.115,1243617
-0.020,-0.140,-1.078,-64.031,63.206,36.015,1247629
-0.029,-0.110,-1.052,-62.702,75.893,31.649,1251640
-0.021,-0.106,-1.048,-61.893,93.420,31.756,1255651
-0.055,-0.064,-1.063,-59.221,97.038,19.924,1259662
-0.011,-0.088,-1.065,-51.756,102.840,19.664,1263683
0.004,-0.088,-1.049,-47.863,118.519,19.985,1267695
0.021,-0.083,-1.059,-42.916,129.817,18.351,1271706
0.051,-0.075,-1.063,-38.733,135.817,15.832,1275717
0.070,-0.077,-1.057,-35.130,141.649,11.710,1279728
0.113,-0.084,-1.077,-29.511,146.580,14.534,1283741
0.162,-0.097,-1.074,-26.183,145.847,22.840,1287752
0.128,-0.063,-1.049,-28.458,149.099,14.718,1291763
0.143,-0.063,-1.107,-26.351,136.977,11.954,1295775
0.208,-0.112,-1.068,-23.725,132.489,19.634,1299786
0.200,-0.099,-1.072,-21.954,132.336,22.626,1303798
0.191,-0.095,-1.098,-20.015,118.595,22.397,1307808
0.221,-0.106,-1.084,-18.977,113.359,22.901,1311819
0.242,-0.104,-1.095,-18.000,108.183,24.504,1315830
0.263,-0.102,-1.106,-16.443,102.611,26.336,1319841
0.283,-0.108,-1.105,-15.786,99.405,26.840,1323862
0.308,-0.116,-1.110,-15.466,94.595,27.740,1327873
0.314,-0.110,-1.116,-14.733,92.763,28.122,1331884
0.321,-0.105,-1.115,-14.260,91.313,27.908,1335895
0.330,-0.100,-1.122,-13.649,85.542,27.679,1339914
0.325,-0.089,-1.116,-12.504,80.061,27.557,1343925
0.331,-0.071,-1.126,-11.237,73.328,26.336,1347936
0.332,-0.067,-1.127,-9.847,66.458,24.092,1351947
0.324,-0.053,-1.139,-8.519,59.313,21.344,1355958
0.324,-0.052,-1.151,-7.053,51.420,18.489,1359969
0.316,-0.059,-1.155,-6.000,46.412,15.664,1363980
0.308,-0.062,-1.161,-5.145,38.733,12.580,1367991
0.303,-0.071,-1.161,-4.840,34.885,10.198,1372002
0.284,-0.071,-1.171,-4.656,31.008,7.832,1376013
0.273,-0.080,-1.188,-4.336,28.473,5.618,1380024
0.269,-0.083,-1.170,-4.290,28.336,4.412,1384035
0.267,-0.091,-1.185,-4.672,27.863,3.298,1388046
0.274,-0.100,-1.183,-5.313,29.053,2.779,1392057
0.276,-0.113,-1.188,-6.137,30.290,1.710,1396068
0.273,-0.119,-1.185,-7.634,29.588,-1.924,1400080
0.289,-0.138,-1.176,-9.160,32.076,-5.954,1404091
0.304,-0.152,-1.189,-10.855,32.443,-6.489,1408103
0.336,-0.173,-1.187,-12.061,30.779,-0.916,1412114
0.317,-0.155,-1.205,-13.863,25.786,3.282,1416125
0.323,-0.152,-1.203,-15.084,17.908,4.260,1420136
0.311,-0.146,-1.208,-15.786,12.275,6.366,1424147
0.305,-0.135,-1.206,-15.969,6.153,6.855,1428154
0.298,-0.121,-1.209,-15.466,-0.321,6.824,1432165
0.298,-0.104,-1.212,-14.534,-7.191,6.427,1436176
0.283,-0.088,-1.204,-12.947,-13.985,5.405,1440187
0.282,-0.078,-1.194,-11.542,-15.328,6.931,1444198
0.264,-0.073,-1.193,-9.863,-16.794,9.038,1448210
0.241,-0.066,-1.184,-8.397,-16.092,8.214,1452220
0.240,-0.064,-1.184,-6.611,-14.580,9.786,1456231
0.232,-0.068,-1.184,-4.000,-11.649,11.221,1460242
0.212,-0.066,-1.179,-2.305,-6.840,9.130,1464253
0.194,-0.058,-1.178,-0.504,-1.908,1.939,1468265
0.213,-0.075,-1.170,0.397,4.458,-0.611,1472276
0.216,-0.089,-1.171,0.824,10.412,-0.931,1476288
0.224,-0.096,-1.175,0.824,13.588,-3.618,1480298
0.231,-0.114,-1.172,0.214,18.931,-5.679,1484309
0.256,-0.119,-1.176,-0.565,23.908,-7.084,1488320
0.267,-0.125,-1.158,-1.496,26.885,-8.550,1492331
0.289,-0.130,-1.170,-2.550,26.229,-8.641,1496342
0.301,-0.128,-1.177,-3.588,24.534,-8.931,1500354
0.318,-0.130,-1.174,-4.382,21.481,-6.855,1504365
0.314,-0.124,-1.185,-5.771,17.069,-3.679,1508376
0.323,-0.116,-1.183,-6.412,9.847,-4.412,1512387
0.316,-0.112,-1.176,-7.038,2.290,-4.855,1516398
0.317,-0.110,-1.168,-7.115,-3.115,-5.405,1520410
0.310,-0.104,-1.165,-7.130,-8.595,-5.802,1524421
0.303,-0.095,-1.169,-6.382,-15.878,-6.534,1528431
0.294,-0.095,-1.161,-6.122,-18.809,-6.580,1532442
0.295,-0.092,-1.155,-5.695,-20.824,-6.519,1536453
0.283,-0.096,-1.147,-5.405,-20.153,-6.198,1540464
0.272,-0.101,-1.142,-5.130,-18.779,-5.725,1544475
0.268,-0.097,-1.152,-4.611,-17.771,-5.176,1548486
0.262,-0.094,-1.143,-4.107,-14.687,-4.550,1552498
0.251,-0.094,-1.139,-3.511,-10.137,-4.183,1556509
0.250,-0.090,-1.137,-2.916,-7.176,-3.908,1560520
0.253,-0.088,-1.136,-2.061,-4.290,-4.092,1564531
0.251,-0.088,-1.129,-1.420,-2.412,-4.046,1568542
0.255,-0.097,-1.128,-0.580,1.313,-4.214,1572553
0.258,-0.096,-1.133,0.244,3.038,-4.519,1576564
0.258,-0.093,-1.140,1.115,3.878,-5.038,1580576
0.257,-0.098,-1.134,2.046,4.137,-5.267,1584587
0.259,-0.100,-1.141,2.794,3.924,-5.649,1588599
0.269,-0.107,-1.131,3.252,4.702,-6.107,1592609
0.280,-0.119,-1.121,3.511,4.519,-6.443,1596620
0.291,-0.127,-1.135,3.832,4.183,-6.763,1600631
0.296,-0.135,-1.133,3.740,4.305,-7.069,1604642
0.292,-0.134,-1.133,3.389,4.031,-7.557,1608653
0.291,-0.132,-1.148,2.687,2.565,-7.435,1612674
0.289,-0.128,-1.143,1.924,0.198,-8.000,1616685
0.289,-0.132,-1.141,1.435,-2.977,-8.321,1620696
0.279,-0.136,-1.145,0.595,-6.504,-8.672,1624707
0.274,-0.136,-1.148,-0.275,-9.511,-9.038,1628719
0.270,-0.131,-1.137,-0.718,-10.885,-9.420,1632732
0.252,-0.120,-1.155,-1.191,-16.336,-10.031,1636743
0.245,-0.133,-1.145,-1.771,-18.824,-9.878,1640754
0.238,-0.118,-1.148,-2.458,-19.099,-9.527,1644765
0.234,-0.115,-1.138,-2.611,-19.053,-9.328,1648777
0.224,-0.116,-1.138,-2.824,-18.290,-9.084,1652788
0.215,-0.112,-1.129,-2.824,-18.366,-8.733,1656799
0.208,-0.108,-1.137,-2.779,-15.420,-7.176,1660811
0.205,-0.108,-1.123,-2.748,-10.977,-5.863,1664822
0.207,-0.104,-1.121,-2.473,-8.076,-5.542,1668833
0.215,-0.092,-1.131,-2.244,-6.595,-4.580,1672843
0.208,-0.091,-1.125,-1.740,-4.565,-3.756,1676854
0.216,-0.088,-1.125,-1.527,-0.794,-2.382,1680865
0.204,-0.089,-1.120,-1.023,0.198,-2.137,1684877
0.208,-0.090,-1.122,-0.458,-0.275,-1.786,1688888
0.215,-0.090,-1.124,-0.107,-1.847,-1.725,1692898
0.213,-0.092,-1.112,0.565,-1.786,-1.344,1696909
0.209,-0.096,-1.132,0.687,-1.023,-1.084,1700920
0.209,-0.096,-1.123,1.038,-1.466,-0.916,1704931
0.211,-0.098,-1.126,0.840,-2.076,-0.809,1708942
0.214,-0.102,-1.120,0.305,-0.641,-0.489,1712963
0.217,-0.106,-1.110,-0.061,1.649,-0.046,1716974
0.233,-0.111,-1.113,-0.504,3.130,0.290,1720986
0.232,-0.111,-1.125,-1.160,3.954,0.489,1724996
0.241,-0.118,-1.122,-2.107,6.366,0.794,1729007
0.246,-0.120,-1.124,-3.084,7.130,0.809,1733028
0.250,-0.121,-1.124,-4.351,7.405,0.885,1737039
0.250,-0.115,-1.121,-5.450,6.382,1.099,1741050
0.259,-0.114,-1.115,-6.427,5.115,0.779,1745061
0.257,-0.112,-1.119,-7.084,4.702,0.870,1749072
0.264,-0.104,-1.103,-7.756,3.282,0.565,1753084
0.271,-0.103,-1.111,-8.183,1.618,0.565,1757095
0.262,-0.094,-1.118,-8.473,-0.031,0.168,1761106
0.261,-0.093,-1.111,-8.534,-1.221,0.122,1765117
0.254,-0.085,-1.110,-8.290,-1.954,0.153,1769128
0.261,-0.089,-1.115,-7.954,-2.687,0.107,1773138
0.253,-0.079,-1.107,-7.282,-4.046,0.260,1777149
0.253,-0.085,-1.110,-6.794,-4.153,0.550,1781160
0.252,-0.084,-1.101,-6.183,-4.122,0.733,1785172
0.242,-0.084,-1.108,-5.374,-4.168,1.008,1789183
0.237,-0.084,-1.111,-4.565,-4.046,1.176,1793203
0.232,-0.079,-1.108,-3.634,-3.695,1.786,1797213
0.240,-0.090,-1.108,-2.977,-2.321,2.321,1801224
0.241,-0.094,-1.113,-2.641,-0.321,3.069,1805235
0.249,-0.101,-1.111,-2.412,1.389,3.863,1809246
0.251,-0.104,-1.111,-2.214,2.534,4.153,1813266
0.250,-0.108,-1.116,-2.046,3.985,4.718,1817277
0.253,-0.112,-1.113,-2.015,6.550,5.023,1821288
0.250,-0.111,-1.114,-1.771,6.534,5.160,1825299
0.257,-0.116,-1.116,-1.618,6.702,5.053,1829310
0.255,-0.112,-1.122,-1.695,6.046,4.550,1833330
0.266,-0.113,-1.122,-1.847,5.252,4.107,1837340
0.261,-0.112,-1.123,-1.969,5.053,3.527,1841351
0.258,-0.120,-1.120,-2.351,4.198,2.947,1845362
0.269,-0.118,-1.122,-2.443,3.924,2.092,1849373
0.267,-0.116,-1.117,-2.885,3.710,1.756,1853384
0.271,-0.109,-1.114,-3.496,3.542,1.328,1857395
0.274,-0.119,-1.121,-3.908,3.252,0.641,1861406
0.277,-0.120,-1.116,-4.550,3.466,0.153,1865417
0.276,-0.128,-1.129,-4.901,3.756,-0.061,1869428
0.271,-0.122,-1.126,-5.420,2.947,-0.397,1873440
0.267,-0.116,-1.121,-5.435,2.336,-0.504,1877451
0.267,-0.110,-1.110,-5.420,1.603,-0.473,1881462
0.266,-0.106,-1.122,-5.405,1.679,-0.473,1885473
0.273,-0.112,-1.120,-5.328,1.405,-0.702,1889484
0.264,-0.110,-1.111,-5.252,1.130,-0.779,1893495
0.264,-0.104,-1.119,-4.885,1.084,-0.550,1897505
0.263,-0.109,-1.117,-4.565,0.962,-0.565,1901516
0.273,-0.105,-1.117,-4.000,0.702,-0.550,1905527
0.261,-0.101,-1.119,-3.511,0.565,-0.504,1909538
0.267,-0.100,-1.124,-3.115,0.687,-0.534,1913553
0.261,-0.097,-1.115,-2.565,0.412,-0.336,1917565
0.261,-0.106,-1.115,-2.198,0.443,-0.092,1921575
0.267,-0.104,-1.121,-1.618,0.656,0.046,1925586
0.256,-0.105,-1.120,-1.038,0.809,0.015,1929598
0.252,-0.105,-1.121,-0.641,0.336,0.366,1933617
0.253,-0.104,-1.122,-0.137,0.748,0.519,1937629
0.257,-0.109,-1.125,0.351,1.206,0.489,1941640
0.251,-0.112,-1.128,0.626,1.634,0.595,1945651
0.247,-0.114,-1.127,0.870,2.168,0.336,1949662
0.240,-0.121,-1.122,0.702,3.008,0.275,1953683
0.245,-0.122,-1.124,0.947,4.290,0.336,1957695
0.245,-0.125,-1.114,0.443,6.229,0.244,1961706
0.253,-0.130,-1.124,0.046,8.916,0.229,1965717
0.260,-0.139,-1.133,-0.840,9.756,0.107,1969728
0.273,-0.135,-1.118,-1.802,11.969,0.000,1973741
0.283,-0.143,-1.122,-2.672,14.733,0.183,1977752
0.291,-0.137,-1.129,-3.817,15.863,-0.153,1981763
0.295,-0.144,-1.124,-4.748,15.756,-0.260,1985775
0.296,-0.135,-1.131,-5.496,13.985,-0.321,1989786
0.300,-0.133,-1.128,-6.198,11.863,-0.870,1993798
0.296,-0.126,-1.151,-6.550,9.328,-1.176,1997809
0.299,-0.119,-1.121,-6.809,5.298,-1.542,2001819
