acc_x,acc_y,acc_z,gyro_x,gyro_y,gyro_z,time
0.335,-0.135,-1.103,-3.466,2.916,1.878,0
0.333,-0.131,-1.109,-3.847,2.198,1.405,4043
0.333,-0.125,-1.115,-3.985,1.420,0.947,8054
0.333,-0.127,-1.113,-4.229,0.504,0.550,12065
0.331,-0.124,-1.108,-4.046,-0.214,0.260,16076
0.338,-0.124,-1.119,-3.847,-0.855,0.076,20087
0.327,-0.117,-1.110,-3.420,-0.947,0.137,24098
0.328,-0.112,-1.113,-3.282,-1.038,0.061,28109
0.326,-0.113,-1.103,-2.626,-1.206,0.076,32120
0.323,-0.108,-1.115,-2.046,-1.176,0.168,36131
0.314,-0.106,-1.105,-1.710,-0.656,0.214,40142
0.315,-0.107,-1.110,-1.252,-0.351,0.229,44153
0.323,-0.111,-1.101,-1.191,0.412,0.214,48160
0.324,-0.115,-1.102,-1.130,1.099,0.229,52171
0.328,-0.119,-1.116,-1.084,1.053,0.321,56182
0.330,-0.115,-1.107,-0.855,1.252,0.214,60193
0.331,-0.118,-1.113,-0.779,1.160,0.046,64204
0.326,-0.115,-1.107,-1.298,1.374,-0.275,68216
0.334,-0.117,-1.111,-1.099,1.267,-0.519,72227
0.332,-0.118,-1.114,-1.298,0.885,-0.840,76239
0.333,-0.116,-1.116,-1.282,0.534,-1.267,80250
0.322,-0.114,-1.122,-1.450,0.290,-1.481,84261
0.330,-0.110,-1.117,-1.527,0.214,-1.924,88273
0.327,-0.115,-1.116,-1.588,0.076,-2.092,92284
0.331,-0.117,-1.127,-1.954,-0.031,-2.366,96295
0.323,-0.128,-1.122,-2.214,-0.198,-2.489,100306
0.330,-0.125,-1.135,-2.626,-0.275,-2.656,104317
0.332,-0.125,-1.128,-2.962,-0.198,-2.427,108332
0.331,-0.120,-1.119,-3.282,0.000,-2.427,112343
0.325,-0.116,-1.125,-3.359,-0.061,-2.168,116355
0.323,-0.115,-1.140,-3.481,-0.733,-2.366,120365
0.327,-0.116,-1.123,-3.313,-1.542,-2.366,124376
0.321,-0.116,-1.142,-3.389,-1.969,-2.565,128387
0.311,-0.112,-1.128,-3.145,-2.107,-2.458,132398
0.314,-0.112,-1.128,-3.099,-2.015,-2.412,136410
0.309,-0.114,-1.123,-2.779,-2.641,-2.366,140420
0.309,-0.113,-1.125,-2.412,-2.840,-2.458,144431
0.314,-0.107,-1.129,-2.580,-1.908,-2.366,148442
0.303,-0.111,-1.116,-2.336,-1.176,-2.198,152453
0.303,-0.111,-1.119,-2.260,-0.504,-2.031,156464
0.300,-0.115,-1.110,-2.092,-0.092,-1.710,160475
0.301,-0.108,-1.112,-1.649,0.534,-1.511,164486
0.307,-0.115,-1.116,-1.740,1.298,-1.206,168497
0.311,-0.115,-1.121,-1.771,1.634,-0.992,172508
0.310,-0.113,-1.121,-2.092,1.603,-0.901,176520
0.308,-0.117,-1.117,-2.305,1.740,-0.626,180531
0.310,-0.123,-1.113,-2.458,1.603,-0.748,184542
0.312,-0.118,-1.124,-2.702,1.527,-0.718,188550
0.307,-0.128,-1.119,-3.313,1.160,-0.794,192561
0.308,-0.122,-1.124,-3.771,0.656,-0.901,196572
0.314,-0.124,-1.113,-4.244,0.366,-1.160,200583
0.314,-0.120,-1.113,-4.687,0.000,-1.328,204594
0.320,-0.121,-1.115,-5.206,-0.519,-1.603,208606
0.318,-0.118,-1.117,-5.267,-0.504,-1.847,212618
0.313,-0.116,-1.115,-5.359,-1.008,-2.046,216628
0.313,-0.117,-1.117,-5.450,-1.069,-2.061,220639
0.306,-0.115,-1.107,-5.466,-1.389,-2.000,224650
0.314,-0.113,-1.106,-5.466,-1.527,-1.969,228662
0.307,-0.113,-1.105,-5.191,-1.496,-2.000,232683
0.307,-0.104,-1.108,-4.809,-1.405,-1.817,236694
0.304,-0.104,-1.106,-4.336,-1.481,-1.756,240705
0.301,-0.100,-1.099,-3.969,-1.069,-1.511,244716
0.297,-0.102,-1.111,-3.267,-0.489,-1.130,248729
0.307,-0.102,-1.107,-2.962,-0.137,-1.084,252744
0.308,-0.104,-1.095,-2.473,0.076,-0.779,256755
0.299,-0.104,-1.111,-2.183,0.275,-0.260,260766
0.303,-0.104,-1.091,-1.740,0.534,-0.275,264777
0.297,-0.110,-1.102,-1.435,0.824,-0.198,268788
0.304,-0.117,-1.103,-1.405,0.733,-0.031,272799
0.304,-0.120,-1.103,-1.466,1.053,-0.168,276810
0.304,-0.127,-1.101,-1.618,1.664,-0.153,280821
0.308,-0.126,-1.102,-2.153,1.878,-0.122,284832
0.313,-0.125,-1.097,-2.427,2.015,-0.321,288844
0.321,-0.129,-1.105,-3.023,1.832,-0.641,292854
0.309,-0.132,-1.109,-3.282,1.802,-0.733,296865
0.318,-0.125,-1.099,-3.740,1.634,-1.252,300876
0.322,-0.120,-1.104,-4.046,1.374,-1.389,304887
0.317,-0.124,-1.108,-3.893,1.008,-1.496,308899
0.318,-0.121,-1.104,-4.244,0.870,-1.802,312909
0.321,-0.119,-1.107,-4.244,0.718,-1.924,316920
0.318,-0.113,-1.111,-4.290,0.427,-2.092,320931
0.321,-0.115,-1.107,-4.229,0.397,-2.122,324942
0.319,-0.121,-1.107,-4.092,0.321,-2.076,328953
0.312,-0.120,-1.105,-3.740,0.427,-1.756,332973
0.307,-0.101,-1.114,-3.298,0.656,-1.695,336984
0.303,-0.104,-1.104,-2.794,0.931,-1.466,340995
0.309,-0.108,-1.108,-2.397,1.282,-0.992,345006
0.309,-0.112,-1.104,-2.046,1.771,-0.885,349017
0.305,-0.113,-1.106,-1.359,2.229,-0.427,353038
0.295,-0.106,-1.108,-0.809,2.824,-0.305,357049
0.306,-0.114,-1.111,-0.550,3.771,0.061,361060
0.303,-0.115,-1.111,-0.336,4.015,0.244,365072
0.312,-0.117,-1.114,0.031,4.855,0.351,369083
0.315,-0.123,-1.109,-0.076,5.328,0.061,373094
0.318,-0.126,-1.107,-0.137,5.847,-0.275,377105
0.313,-0.129,-1.108,-0.412,6.260,-0.260,381116
0.315,-0.134,-1.115,-0.656,6.656,-0.489,385128
0.325,-0.133,-1.110,-1.176,6.718,-0.733,389139
0.328,-0.132,-1.111,-1.802,6.718,-1.160,393149
0.335,-0.128,-1.102,-2.336,7.069,-1.481,397160
0.331,-0.137,-1.111,-3.191,7.420,-1.725,401171
0.335,-0.138,-1.114,-4.046,7.359,-1.969,405182
0.335,-0.127,-1.107,-4.366,6.763,-2.412,409193
0.343,-0.127,-1.118,-5.008,5.740,-2.702,413214
0.333,-0.125,-1.118,-5.420,4.260,-2.733,417224
0.328,-0.122,-1.113,-5.573,2.489,-2.809,421235
0.331,-0.119,-1.113,-5.725,2.153,-2.824,425246
0.319,-0.119,-1.110,-5.634,1.771,-2.702,429257
0.325,-0.108,-1.123,-5.466,0.626,-2.656,433277
0.317,-0.102,-1.117,-5.145,-0.168,-2.672,437288
0.318,-0.106,-1.117,-4.626,0.656,-2.473,441299
0.310,-0.106,-1.124,-4.198,1.649,-2.473,445311
0.311,-0.096,-1.116,-4.122,2.122,-2.183,449322
0.296,-0.097,-1.115,-3.298,2.061,-2.122,453339
0.303,-0.099,-1.097,-2.412,2.550,-1.649,457350
0.303,-0.103,-1.113,-1.939,5.053,-1.176,461361
0.299,-0.101,-1.125,-1.313,5.832,-0.901,465373
0.303,-0.105,-1.116,-1.053,6.534,-0.931,469384
0.301,-0.104,-1.111,-0.763,8.351,-0.550,473395
0.304,-0.112,-1.113,-0.519,10.076,-0.153,477406
0.305,-0.117,-1.114,-0.260,10.901,0.153,481417
0.313,-0.120,-1.116,-0.443,12.015,0.458,485428
0.332,-0.125,-1.105,-0.824,13.115,0.672,489439
0.335,-0.122,-1.116,-1.328,14.611,0.947,493450
0.348,-0.132,-1.118,-1.939,15.298,0.870,497461
0.352,-0.123,-1.119,-2.855,14.718,0.718,501472
0.357,-0.122,-1.110,-3.130,12.519,0.076,505483
0.347,-0.133,-1.112,-4.458,10.885,-0.229,509494
0.351,-0.136,-1.114,-5.359,7.649,-0.473,513504
0.363,-0.123,-1.109,-5.649,4.779,-0.885,517515
0.359,-0.121,-1.110,-6.046,1.756,-1.298,521526
0.343,-0.125,-1.112,-6.565,-0.076,-1.817,525537
0.333,-0.111,-1.112,-6.702,-3.252,-2.351,529548
0.318,-0.108,-1.115,-6.641,-6.290,-3.145,533558
0.321,-0.097,-1.106,-6.168,-6.733,-3.450,537569
0.313,-0.100,-1.117,-5.634,-7.191,-3.557,541580
0.320,-0.106,-1.104,-5.313,-5.221,-3.328,545591
0.316,-0.105,-1.100,-4.656,-3.053,-3.084,549602
0.315,-0.102,-1.095,-4.198,-1.328,-3.145,553622
0.313,-0.104,-1.102,-3.847,1.038,-2.794,557633
0.314,-0.098,-1.093,-3.221,2.061,-3.069,561645
0.317,-0.102,-1.092,-2.840,2.962,-3.023,565656
0.322,-0.112,-1.099,-2.412,5.069,-2.885,569667
0.329,-0.118,-1.090,-1.878,5.420,-3.176,573688
0.343,-0.113,-1.095,-1.542,5.099,-3.786,577699
0.344,-0.111,-1.093,-1.130,4.046,-4.107,581710
0.351,-0.111,-1.087,-0.565,2.015,-5.130,585721
0.360,-0.107,-1.072,-0.015,0.947,-6.153,589732
0.367,-0.110,-1.084,0.595,-0.870,-7.695,593746
0.372,-0.117,-1.093,0.916,-3.985,-9.359,597756
0.386,-0.120,-1.104,1.160,-7.359,-10.992,601767
0.393,-0.126,-1.090,1.405,-10.244,-12.763,605778
0.401,-0.125,-1.087,1.435,-13.588,-14.656,609789
0.414,-0.117,-1.084,1.588,-16.977,-16.534,613802
0.412,-0.116,-1.088,1.817,-21.511,-18.718,617812
0.416,-0.111,-1.096,1.618,-26.672,-21.130,621823
0.432,-0.116,-1.086,1.527,-32.595,-23.649,625834
0.425,-0.114,-1.081,1.466,-39.664,-26.244,629845
0.427,-0.115,-1.083,1.466,-47.511,-28.382,633866
0.428,-0.121,-1.069,2.061,-56.397,-30.779,637877
0.426,-0.111,-1.075,3.115,-65.374,-32.733,641889
0.429,-0.100,-1.064,4.412,-75.374,-34.687,645899
0.423,-0.089,-1.059,6.260,-82.748,-35.969,649919
0.417,-0.074,-1.053,8.427,-92.305,-37.176,653930
0.401,-0.069,-1.053,10.336,-100.122,-37.542,657941
0.408,-0.073,-1.045,12.046,-106.122,-37.496,661952
0.399,-0.078,-1.034,14.107,-111.985,-37.466,665963
0.388,-0.072,-1.052,16.031,-120.351,-36.672,669974
0.382,-0.076,-1.042,18.031,-129.221,-35.557,673985
0.376,-0.066,-1.035,20.229,-135.511,-33.710,677996
0.363,-0.046,-1.036,22.992,-143.618,-32.061,682007
0.346,-0.037,-1.043,25.282,-154.885,-30.550,686018
0.311,-0.026,-1.050,26.702,-167.542,-29.313,690029
0.284,-0.018,-1.033,28.397,-178.687,-28.046,694040
0.256,-0.012,-1.008,30.275,-191.252,-27.176,698051
0.226,-0.010,-0.994,32.290,-204.504,-26.672,702062
0.187,-0.002,-0.998,33.954,-219.527,-26.672,706073
0.152,0.002,-0.981,34.687,-236.260,-27.511,710085
0.080,0.003,-0.962,35.649,-251.832,-28.183,714096
0.015,-0.009,-0.953,36.092,-265.527,-27.527,718108
-0.011,-0.009,-0.937,36.626,-276.580,-27.435,722119
-0.057,-0.040,-0.957,35.649,-284.977,-26.672,726130
-0.077,-0.062,-0.937,34.183,-289.023,-26.260,730141
-0.093,-0.062,-0.920,33.466,-287.618,-26.412,734152
-0.114,-0.069,-0.896,32.321,-282.992,-26.901,738159
-0.136,-0.074,-0.880,31.221,-276.443,-27.740,742170
-0.168,-0.069,-0.873,31.954,-270.977,-34.595,746181
-0.198,-0.068,-0.872,32.687,-265.344,-39.176,750192
-0.221,-0.055,-0.860,34.733,-260.992,-43.740,754203
-0.233,-0.067,-0.871,38.687,-263.924,-42.458,758215
-0.258,-0.073,-0.851,45.603,-267.496,-39.557,762225
-0.272,-0.077,-0.876,49.725,-275.786,-37.771,766236
-0.312,-0.098,-0.892,55.389,-283.725,-34.733,770247
-0.325,-0.112,-0.901,61.771,-292.214,-29.466,774258
-0.341,-0.115,-0.917,68.168,-302.473,-25.695,778270
-0.359,-0.122,-0.937,74.504,-310.977,-21.053,782281
-0.371,-0.134,-0.949,80.168,-316.489,-15.130,786293
-0.404,-0.158,-0.945,85.863,-320.901,-9.145,790303
-0.447,-0.174,-0.928,90.779,-320.168,-7.008,794314
-0.485,-0.200,-0.925,95.710,-317.725,-4.122,798325
-0.517,-0.217,-0.905,100.687,-310.565,-2.229,802336
-0.516,-0.214,-0.915,99.786,-305.435,-2.626,806347
-0.537,-0.259,-0.935,100.733,-294.305,-1.160,810359
-0.546,-0.272,-0.949,99.298,-283.160,-9.557,814370
-0.511,-0.284,-0.915,95.817,-261.145,-19.664,818381
-0.488,-0.329,-0.915,96.397,-242.443,-26.092,822392
-0.449,-0.448,-0.791,106.855,-223.557,-8.244,826403
-0.479,-0.379,-0.886,103.969,-201.664,-19.511,830415
-0.498,-0.398,-0.909,105.557,-187.466,-25.328,834426
-0.483,-0.427,-0.906,113.053,-181.053,-19.191,838436
-0.501,-0.440,-0.912,114.076,-179.115,-18.840,842447
-0.475,-0.474,-0.884,119.328,-179.282,-16.229,846458
-0.613,-0.375,-1.123,82.366,-169.725,-43.069,850469
-0.520,-0.489,-1.032,82.779,-189.420,-35.023,854480
-0.519,-0.532,-1.074,76.198,-200.977,-33.237,858491
-0.576,-0.507,-1.064,71.725,-196.229,-34.305,862503
-0.591,-0.494,-1.079,67.557,-195.802,-33.115,866514
-0.616,-0.462,-1.110,64.931,-203.786,-27.649,870525
-0.647,-0.450,-1.113,63.603,-209.160,-25.893,874536
-0.677,-0.433,-1.082,60.412,-194.153,-26.153,878547
-0.727,-0.401,-1.108,60.840,-179.160,-21.389,882558
-0.746,-0.412,-1.148,61.145,-173.771,-16.809,886569
-0.777,-0.416,-1.147,61.985,-168.489,-8.748,890581
-0.795,-0.422,-1.150,62.107,-159.557,-2.290,894592
-0.826,-0.437,-1.137,62.260,-141.237,3.664,898604
-0.842,-0.422,-1.165,65.069,-128.244,5.725,902614
-0.847,-0.431,-1.164,66.046,-117.954,7.405,906625
-0.821,-0.435,-1.157,65.756,-101.847,12.015,910636
-0.813,-0.432,-1.146,65.420,-87.664,15.695,914647
-0.820,-0.438,-1.141,65.115,-72.656,19.176,918658
-0.832,-0.447,-1.143,64.153,-57.191,21.542,922679
-0.821,-0.476,-1.131,61.420,-45.756,23.695,926690
-0.795,-0.500,-1.124,57.344,-31.206,24.061,930701
-0.764,-0.514,-1.126,51.969,-17.954,23.954,934712
-0.722,-0.507,-1.126,46.260,-5.237,23.237,938724
-0.702,-0.508,-1.127,39.985,5.924,22.641,942737
-0.685,-0.499,-1.129,33.878,11.191,22.229,946748
-0.684,-0.492,-1.121,28.153,17.130,21.420,950759
-0.673,-0.501,-1.111,22.458,21.221,19.206,954770
-0.643,-0.514,-1.112,16.504,24.519,17.466,958782
-0.609,-0.527,-1.092,9.435,27.481,15.450,962793
-0.593,-0.534,-1.093,2.458,27.466,13.252,966804
-0.576,-0.526,-1.065,-4.031,30.122,13.069,970816
-0.578,-0.508,-1.042,-9.695,34.702,11.954,974827
-0.581,-0.485,-1.032,-15.252,39.435,10.626,978838
-0.585,-0.484,-1.032,-20.000,42.718,9.466,982848
-0.583,-0.489,-1.023,-24.260,45.542,8.534,986859
-0.580,-0.488,-1.007,-28.183,51.389,7.420,990870
-0.579,-0.471,-1.004,-31.405,58.840,6.061,994882
-0.589,-0.435,-0.991,-34.473,65.206,5.282,998893
-0.613,-0.420,-0.992,-37.496,68.718,5.298,1002904
-0.636,-0.403,-0.995,-40.458,71.969,4.458,1006914
-0.644,-0.395,-0.975,-43.206,78.321,2.580,1010925
-0.655,-0.393,-0.976,-45.664,86.137,0.809,1014936
-0.664,-0.404,-0.956,-48.305,94.397,-1.145,1018947
-0.647,-0.407,-0.944,-51.313,104.687,-1.817,1022968
-0.638,-0.410,-0.941,-54.672,116.840,-3.344,1026979
-0.630,-0.407,-0.927,-57.924,130.427,-5.084,1030990
-0.628,-0.405,-0.918,-60.885,145.557,-7.344,1035001
-0.613,-0.413,-0.924,-64.458,159.908,-10.321,1039012
-0.585,-0.411,-0.947,-67.893,174.031,-12.992,1043033
-0.564,-0.425,-0.932,-69.939,187.679,-15.252,1047044
-0.533,-0.400,-0.949,-73.420,198.382,-21.267,1051055
-0.521,-0.394,-0.966,-76.229,207.939,-23.740,1055066
-0.498,-0.390,-0.983,-77.710,211.588,-24.076,1059077
-0.487,-0.370,-0.976,-80.580,214.595,-26.290,1063089
-0.476,-0.333,-0.985,-81.878,215.771,-29.985,1067100
-0.469,-0.316,-1.003,-81.863,214.351,-32.947,1071111
-0.461,-0.296,-0.985,-81.008,214.031,-33.649,1075122
-0.471,-0.277,-0.991,-80.763,212.290,-35.023,1079133
-0.483,-0.253,-0.988,-79.756,210.504,-36.687,1083143
-0.508,-0.218,-0.959,-81.282,211.130,-41.298,1087154
-0.529,-0.158,-0.929,-85.588,217.313,-46.840,1091165
-0.522,-0.138,-0.929,-85.267,220.519,-40.733,1095177
-0.568,-0.126,-0.944,-86.840,225.954,-56.397,1099188
-0.469,-0.114,-1.238,-87.084,251.389,-74.092,1103208
-0.563,-0.199,-0.934,-81.710,244.122,-74.061,1107218
-0.556,-0.171,-0.907,-76.519,272.168,-83.267,1111229
-0.505,-0.195,-0.935,-76.641,288.015,-89.420,1115240
-0.508,-0.333,-0.758,-49.298,300.153,-76.473,1119251
-0.380,-0.290,-0.868,-35.435,331.893,-46.290,1123271
-0.347,-0.315,-0.937,-27.038,359.252,-52.489,1127282
-0.313,-0.362,-0.735,-13.573,362.183,-41.634,1131293
-0.208,-0.368,-0.897,-9.145,406.733,-36.687,1135304
-0.156,-0.374,-0.892,6.351,411.038,-38.718,1139315
-0.109,-0.377,-0.880,17.695,422.519,-40.611,1143335
0.069,-0.487,-0.818,9.267,441.588,-17.939,1147345
-0.148,-0.378,-0.998,-44.321,418.366,-94.122,1151356
0.571,-0.522,-1.029,-44.824,372.763,-12.137,1155367
0.090,-0.399,-0.955,-48.656,377.374,-15.695,1159378
0.134,-0.377,-1.034,-50.412,357.695,-9.328,1163389
0.158,-0.355,-1.011,-49.435,346.290,-4.916,1167400
0.189,-0.342,-1.084,-51.160,288.962,-5.649,1171411
0.217,-0.321,-1.057,-51.328,244.947,-7.069,1175422
0.234,-0.302,-0.976,-51.542,235.145,-4.824,1179433
0.236,-0.287,-0.984,-52.382,226.794,-1.130,1183445
0.228,-0.262,-1.003,-52.458,210.290,1.847,1187456
0.232,-0.252,-1.007,-52.092,191.160,5.466,1191467
0.243,-0.228,-0.978,-50.611,188.046,11.695,1195478
0.219,-0.213,-0.963,-49.420,195.145,13.450,1199489
0.219,-0.211,-0.987,-48.092,195.038,11.267,1203500
0.201,-0.207,-1.002,-46.855,188.580,11.725,1207510
0.198,-0.208,-1.010,-46.015,183.298,11.740,1211521
0.213,-0.215,-1.014,-45.267,181.802,12.366,1215532
0.223,-0.221,-0.999,-44.504,182.687,12.962,1219543
0.228,-0.221,-1.003,-43.252,175.679,12.351,1223558
0.240,-0.222,-1.007,-42.779,165.954,11.084,1227570
0.244,-0.223,-1.003,-42.427,158.809,10.305,1231580
0.245,-0.227,-1.009,-42.290,152.672,10.031,1235591
0.253,-0.230,-1.010,-42.214,145.588,10.244,1239603
0.263,-0.224,-1.018,-42.046,137.145,10.489,1243622
0.283,-0.227,-1.014,-42.183,131.099,10.366,1247634
0.300,-0.221,-1.010,-42.000,125.725,10.672,1251645
0.319,-0.213,-1.011,-41.817,123.053,11.328,1255656
0.337,-0.206,-1.018,-41.389,118.763,12.107,1259667
0.343,-0.194,-1.015,-40.702,114.275,13.359,1263688
0.354,-0.185,-1.018,-39.878,109.084,14.534,1267700
0.351,-0.177,-1.028,-38.794,100.824,15.130,1271711
0.339,-0.152,-1.036,-37.282,91.389,15.069,1275722
0.340,-0.147,-1.030,-35.466,82.260,15.038,1279733
0.333,-0.133,-1.042,-33.221,70.992,14.824,1283746
0.327,-0.138,-1.038,-31.176,63.282,15.038,1287757
0.335,-0.139,-1.047,-29.084,53.130,14.947,1291768
0.347,-0.151,-1.044,-27.542,44.366,15.237,1295780
0.349,-0.148,-1.030,-26.092,40.611,15.710,1299791
0.345,-0.156,-1.034,-24.840,36.779,15.740,1303803
0.341,-0.164,-1.020,-23.954,35.206,16.473,1307813
0.342,-0.171,-1.007,-22.443,32.855,16.611,1311824
0.335,-0.172,-1.019,-21.405,29.878,16.977,1315835
0.322,-0.178,-1.021,-20.748,28.489,17.328,1319846
0.325,-0.170,-1.020,-19.725,26.550,17.267,1323867
0.330,-0.162,-1.024,-18.565,23.725,16.763,1327878
0.336,-0.157,-1.010,-17.130,21.664,16.153,1331889
0.333,-0.154,-1.012,-15.878,19.756,15.481,1335900
0.323,-0.148,-1.011,-14.885,17.649,14.824,1339919
0.322,-0.149,-1.017,-13.435,15.145,14.000,1343930
0.314,-0.157,-1.015,-11.969,12.076,12.748,1347941
0.314,-0.158,-1.014,-10.397,11.053,12.412,1351952
0.327,-0.154,-1.016,-8.763,10.534,11.786,1355963
0.331,-0.148,-1.030,-7.527,11.191,11.634,1359974
0.347,-0.152,-1.029,-6.366,12.107,11.374,1363985
0.351,-0.150,-1.033,-5.481,10.595,11.023,1367996
0.366,-0.149,-1.027,-4.779,12.534,11.206,1372007
0.374,-0.152,-1.031,-4.305,13.725,11.710,1376018
0.391,-0.164,-1.027,-3.863,12.153,11.893,1380029
0.408,-0.167,-1.037,-4.122,9.328,11.695,1384040
0.419,-0.166,-1.035,-4.061,4.015,11.252,1388051
0.429,-0.167,-1.044,-4.443,-1.786,10.870,1392062
0.437,-0.175,-1.037,-5.099,-8.290,10.473,1396073
0.438,-0.182,-1.045,-6.458,-18.672,9.893,1400085
0.432,-0.186,-1.041,-7.786,-30.153,9.298,1404096
0.429,-0.198,-1.045,-9.115,-39.878,8.763,1408108
0.413,-0.202,-1.040,-10.214,-47.344,7.695,1412119
0.397,-0.196,-1.067,-11.206,-58.672,5.573,1416130
0.394,-0.190,-1.052,-12.244,-64.931,3.954,1420141
0.380,-0.188,-1.059,-12.641,-69.756,2.122,1424152
0.373,-0.179,-1.057,-13.252,-70.046,1.344,1428159
0.360,-0.169,-1.059,-13.786,-67.695,0.626,1432170
0.350,-0.174,-1.071,-13.786,-67.191,-0.290,1436181
0.349,-0.179,-1.065,-13.954,-63.573,-1.298,1440192
0.341,-0.175,-1.066,-14.000,-58.718,-2.351,1444203
0.331,-0.168,-1.077,-13.542,-54.534,-3.298,1448215
0.321,-0.163,-1.091,-12.947,-53.038,-3.954,1452225
0.312,-0.164,-1.092,-11.985,-51.221,-4.443,1456236
0.310,-0.157,-1.090,-10.794,-49.130,-4.656,1460247
0.309,-0.155,-1.095,-9.328,-46.992,-4.687,1464258
0.321,-0.155,-1.095,-7.969,-45.573,-4.763,1468270
0.316,-0.155,-1.092,-6.656,-44.137,-4.412,1472281
0.319,-0.167,-1.103,-5.786,-42.519,-4.076,1476293
0.323,-0.170,-1.096,-4.992,-40.779,-3.695,1480303
0.319,-0.177,-1.104,-4.092,-39.527,-3.115,1484314
0.314,-0.176,-1.100,-3.527,-38.061,-2.611,1488325
0.308,-0.172,-1.099,-2.885,-36.656,-1.939,1492336
0.306,-0.176,-1.110,-2.321,-35.237,-1.282,1496347
0.313,-0.176,-1.121,-1.893,-33.969,-0.870,1500359
0.316,-0.183,-1.108,-1.511,-32.275,-0.382,1504370
0.322,-0.180,-1.125,-1.344,-30.779,-0.412,1508381
0.326,-0.185,-1.118,-1.282,-29.389,0.046,1512392
0.313,-0.181,-1.123,-1.267,-27.603,-0.122,1516403
0.315,-0.187,-1.121,-0.962,-25.634,0.092,1520415
0.309,-0.182,-1.133,-0.687,-23.573,0.046,1524426
0.313,-0.188,-1.134,-0.473,-21.328,-0.137,1528436
0.315,-0.176,-1.136,-0.122,-19.389,-0.305,1532447
0.316,-0.189,-1.130,-0.076,-16.947,-0.595,1536458
0.317,-0.190,-1.136,0.076,-14.870,-0.840,1540469
0.321,-0.182,-1.127,0.183,-13.053,-1.160,1544480
0.312,-0.184,-1.123,0.198,-11.115,-1.557,1548491
0.305,-0.185,-1.125,0.443,-9.786,-1.954,1552503
0.307,-0.180,-1.130,0.656,-8.122,-2.153,1556514
0.309,-0.184,-1.132,0.641,-6.702,-2.260,1560525
0.304,-0.183,-1.123,0.565,-5.038,-2.489,1564536
0.312,-0.180,-1.129,0.321,-3.679,-2.565,1568547
0.308,-0.185,-1.126,-0.046,-2.473,-2.550,1572558
0.314,-0.180,-1.120,-0.229,-0.947,-2.244,1576569
0.307,-0.181,-1.120,-0.534,1.191,-2.092,1580581
0.312,-0.180,-1.127,-0.885,1.466,-2.122,1584592
0.318,-0.176,-1.121,-1.130,1.298,-2.244,1588604
0.309,-0.186,-1.135,-1.756,0.931,-2.229,1592614
0.316,-0.193,-1.119,-1.954,0.718,-2.336,1596625
0.318,-0.188,-1.120,-2.382,0.519,-2.366,1600636
0.328,-0.184,-1.126,-3.038,-0.260,-2.443,1604647
0.321,-0.191,-1.121,-3.710,-1.893,-2.489,1608658
0.321,-0.183,-1.127,-4.229,-3.664,-2.794,1612679
0.317,-0.172,-1.116,-4.473,-5.634,-3.221,1616690
0.315,-0.173,-1.113,-4.641,-7.573,-3.435,1620701
0.304,-0.172,-1.115,-4.870,-8.214,-3.527,1624712
0.302,-0.178,-1.117,-5.023,-9.664,-3.954,1628724
0.290,-0.176,-1.109,-5.053,-11.588,-4.351,1632737
0.278,-0.172,-1.113,-4.962,-12.397,-4.672,1636748
0.264,-0.168,-1.107,-4.382,-13.511,-4.855,1640759
0.244,-0.159,-1.111,-3.725,-12.779,-4.550,1644770
0.241,-0.162,-1.104,-3.023,-11.145,-4.473,1648782
0.239,-0.153,-1.112,-2.031,-8.947,-4.305,1652793
0.241,-0.156,-1.108,-1.282,-4.824,-4.000,1656804
0.242,-0.162,-1.101,-0.687,0.794,-3.435,1660816
0.248,-0.166,-1.103,-0.550,6.931,-3.099,1664827
0.248,-0.172,-1.107,-0.336,9.924,-2.626,1668838
0.256,-0.187,-1.091,-0.351,14.779,-1.573,1672848
0.270,-0.187,-1.102,-0.687,20.687,-0.489,1676859
0.268,-0.189,-1.105,-0.672,21.939,-0.015,1680870
0.283,-0.190,-1.107,-1.145,22.550,0.336,1684882
0.284,-0.188,-1.117,-1.344,20.153,0.305,1688893
0.292,-0.192,-1.115,-1.817,17.817,0.397,1692903
0.300,-0.188,-1.109,-2.321,15.542,0.122,1696914
0.300,-0.190,-1.121,-2.733,10.489,-0.473,1700925
0.293,-0.187,-1.109,-2.794,5.282,-1.130,1704936
0.291,-0.190,-1.099,-3.282,4.153,-1.695,1708947
0.278,-0.188,-1.118,-3.237,-1.298,-2.748,1712968
0.276,-0.183,-1.113,-2.992,-3.206,-3.344,1716979
0.269,-0.176,-1.115,-3.206,-3.954,-3.756,1720991
0.273,-0.173,-1.108,-2.794,-3.588,-4.275,1725001
0.255,-0.171,-1.098,-2.611,0.366,-3.985,1729012
0.256,-0.176,-1.103,-2.076,2.916,-3.756,1733033
0.255,-0.170,-1.097,-1.649,6.183,-3.252,1737044
0.263,-0.169,-1.101,-1.344,10.046,-2.763,1741055
0.264,-0.173,-1.104,-0.870,10.840,-2.137,1745066
0.271,-0.176,-1.093,-0.718,14.641,-1.450,1749077
0.269,-0.177,-1.097,-0.489,16.427,-0.733,1753089
0.268,-0.175,-1.104,-0.031,16.137,-0.107,1757100
0.271,-0.174,-1.110,0.427,15.466,0.321,1761111
0.271,-0.176,-1.111,0.733,13.282,0.733,1765122
0.280,-0.181,-1.117,0.779,12.153,0.855,1769133
0.290,-0.183,-1.110,0.748,11.328,1.084,1773143
0.295,-0.189,-1.102,0.595,9.725,1.237,1777154
0.301,-0.192,-1.098,0.275,8.321,1.389,1781165
0.306,-0.194,-1.101,-0.107,7.023,1.557,1785177
0.305,-0.193,-1.097,-0.626,5.679,1.603,1789188
0.311,-0.196,-1.108,-1.267,3.603,1.298,1793208
0.306,-0.191,-1.098,-1.740,0.962,0.763,1797218
0.302,-0.195,-1.101,-2.153,-1.466,0.336,1801229
0.300,-0.192,-1.098,-2.641,-2.779,-0.061,1805240
0.296,-0.186,-1.102,-3.130,-3.832,-0.519,1809251
0.296,-0.191,-1.110,-3.573,-5.450,-1.038,1813271
0.300,-0.193,-1.107,-4.092,-6.656,-1.344,1817282
0.299,-0.194,-1.098,-4.458,-6.809,-1.679,1821293
0.292,-0.194,-1.111,-4.840,-6.718,-1.832,1825304
0.301,-0.194,-1.103,-5.176,-7.634,-2.015,1829315
0.297,-0.193,-1.108,-5.282,-8.214,-1.817,1833335
0.299,-0.192,-1.106,-5.695,-9.145,-1.863,1837345
0.294,-0.185,-1.110,-5.695,-9.786,-2.061,1841356
0.295,-0.187,-1.112,-5.878,-10.458,-2.076,1845367
0.288,-0.187,-1.105,-6.061,-10.947,-2.214,1849378
0.287,-0.189,-1.111,-6.198,-11.542,-2.305,1853389
0.291,-0.183,-1.105,-6.260,-12.412,-2.641,1857400
0.291,-0.186,-1.107,-6.366,-12.611,-2.611,1861411
0.282,-0.189,-1.118,-6.336,-12.305,-2.718,1865422
0.279,-0.188,-1.116,-6.473,-12.183,-2.824,1869433
0.274,-0.183,-1.110,-6.351,-11.878,-2.855,1873445
0.275,-0.179,-1.109,-6.122,-12.168,-2.748,1877456
0.265,-0.173,-1.116,-5.466,-12.092,-2.901,1881467
0.258,-0.174,-1.116,-5.130,-11.817,-2.779,1885478
0.256,-0.171,-1.108,-4.611,-11.771,-2.748,1889489
0.250,-0.173,-1.115,-3.939,-11.481,-2.427,1893500
0.242,-0.169,-1.107,-3.160,-10.580,-2.107,1897510
0.239,-0.170,-1.109,-2.092,-8.794,-1.710,1901521
0.238,-0.169,-1.112,-1.374,-6.397,-0.947,1905532
0.247,-0.166,-1.112,-0.580,-3.389,-0.214,1909543
0.247,-0.169,-1.107,0.260,0.031,0.427,1913558
0.251,-0.168,-1.114,0.885,2.718,1.084,1917570
0.258,-0.168,-1.122,1.679,4.748,1.588,1921580
0.269,-0.178,-1.117,1.939,8.534,2.580,1925591
0.276,-0.188,-1.123,2.153,10.412,2.931,1929603
0.281,-0.192,-1.115,2.061,11.282,3.053,1933622
0.293,-0.195,-1.117,2.031,10.947,3.145,1937634
0.295,-0.199,-1.128,1.847,9.405,2.809,1941645
0.298,-0.200,-1.130,0.992,8.702,2.641,1945656
0.302,-0.207,-1.129,0.580,6.794,2.275,1949667
0.301,-0.199,-1.139,-0.260,4.107,1.695,1953688
0.303,-0.196,-1.127,-0.824,2.290,0.962,1957700
0.302,-0.199,-1.120,-1.542,0.992,0.519,1961711
0.302,-0.191,-1.125,-2.046,0.107,-0.061,1965722
0.289,-0.194,-1.124,-2.519,-1.176,-0.779,1969733
0.288,-0.186,-1.126,-2.809,-2.565,-1.725,1973746
0.296,-0.183,-1.124,-3.221,-2.656,-1.985,1977757
0.297,-0.183,-1.108,-3.435,-1.878,-2.351,1981768
0.296,-0.182,-1.113,-3.756,-1.878,-2.519,1985780
0.296,-0.183,-1.118,-3.985,-2.290,-2.824,1989791
0.286,-0.186,-1.116,-4.443,-2.870,-2.855,1993803
0.287,-0.188,-1.117,-4.763,-3.496,-2.702,1997814
0.291,-0.186,-1.113,-5.038,-4.198,-2.550,2001824
