acc_x,acc_y,acc_z,gyro_x,gyro_y,gyro_z,time
0.402,-0.120,-1.084,-3.893,0.015,-1.420,0
0.389,-0.117,-1.079,-4.076,0.031,-1.511,4044
0.386,-0.120,-1.086,-4.198,-0.351,-1.573,8056
0.385,-0.114,-1.079,-4.198,-1.084,-1.481,12067
0.381,-0.115,-1.084,-4.290,-0.885,-1.511,16078
0.378,-0.117,-1.090,-4.061,-0.458,-1.542,20089
0.383,-0.107,-1.076,-3.908,0.687,-1.450,24100
0.380,-0.108,-1.086,-3.588,1.267,-1.344,28107
0.379,-0.113,-1.080,-3.191,1.557,-1.481,32118
0.381,-0.109,-1.083,-2.809,2.015,-1.450,36129
0.381,-0.107,-1.083,-2.580,2.855,-1.389,40140
0.377,-0.106,-1.091,-2.336,3.527,-1.435,44151
0.375,-0.111,-1.085,-1.939,4.122,-1.328,48158
0.374,-0.115,-1.086,-1.634,4.366,-1.298,52168
0.380,-0.113,-1.077,-1.664,4.824,-1.313,56179
0.377,-0.119,-1.083,-1.389,5.206,-1.145,60190
0.380,-0.125,-1.083,-1.481,5.267,-0.962,64201
0.382,-0.114,-1.079,-1.359,5.603,-0.824,68212
0.385,-0.112,-1.072,-1.420,5.695,-0.824,72223
0.384,-0.118,-1.085,-1.450,5.389,-0.809,76234
0.385,-0.114,-1.080,-1.496,4.550,-0.840,80245
0.394,-0.118,-1.077,-1.725,3.908,-0.916,84256
0.384,-0.116,-1.084,-1.939,3.389,-0.947,88267
0.387,-0.120,-1.083,-2.275,2.656,-1.053,92278
0.388,-0.120,-1.078,-2.473,1.725,-1.145,96289
0.386,-0.121,-1.091,-2.809,0.901,-1.282,100300
0.392,-0.124,-1.089,-3.008,0.397,-1.298,104311
0.389,-0.128,-1.078,-3.435,-0.229,-1.328,108322
0.385,-0.125,-1.084,-3.740,-0.840,-1.359,112334
0.381,-0.122,-1.080,-3.847,-1.084,-1.282,116345
0.381,-0.124,-1.083,-4.046,-1.817,-1.328,120357
0.370,-0.120,-1.085,-4.107,-2.550,-1.405,124368
0.368,-0.117,-1.082,-4.076,-2.565,-1.206,128378
0.366,-0.110,-1.079,-4.046,-2.519,-1.069,132390
0.367,-0.114,-1.075,-3.786,-1.191,-0.977,136400
0.370,-0.113,-1.080,-3.420,-0.153,-0.916,140411
0.376,-0.112,-1.081,-2.992,1.573,-0.580,144423
0.376,-0.105,-1.082,-2.382,3.679,-0.107,148433
0.382,-0.104,-1.085,-1.893,4.107,0.061,152444
0.384,-0.103,-1.086,-1.160,6.168,0.183,156455
0.381,-0.104,-1.078,-0.763,7.405,0.489,160466
0.388,-0.109,-1.080,0.031,7.588,0.412,164477
0.383,-0.107,-1.075,0.458,7.695,0.473,168489
0.389,-0.108,-1.076,1.115,6.779,0.198,172500
0.383,-0.106,-1.076,1.435,7.389,0.214,176511
0.379,-0.112,-1.091,1.924,7.969,0.305,180522
0.387,-0.114,-1.085,2.153,7.908,0.046,184533
0.396,-0.124,-1.088,2.000,8.702,0.275,188545
0.402,-0.125,-1.081,1.664,9.176,0.290,192556
0.398,-0.137,-1.085,1.252,10.412,0.580,196568
0.411,-0.142,-1.085,0.809,12.290,0.855,200579
0.416,-0.135,-1.086,0.153,11.664,0.733,204590
0.416,-0.133,-1.093,-0.427,11.130,0.672,208602
0.419,-0.138,-1.092,-1.115,9.389,0.229,212613
0.418,-0.140,-1.095,-1.740,6.947,-0.092,216624
0.412,-0.139,-1.086,-2.473,4.687,-0.351,220635
0.420,-0.136,-1.098,-2.855,1.756,-0.901,224646
0.411,-0.137,-1.088,-3.344,-0.031,-1.328,228658
0.409,-0.135,-1.088,-3.588,-1.466,-1.756,232679
0.405,-0.126,-1.092,-3.756,-4.397,-2.534,236690
0.394,-0.126,-1.093,-4.015,-5.420,-2.763,240702
0.386,-0.123,-1.081,-4.107,-6.168,-3.206,244713
0.386,-0.120,-1.085,-4.183,-5.954,-3.252,248724
0.377,-0.126,-1.078,-3.908,-5.466,-3.221,252736
0.375,-0.118,-1.081,-3.634,-5.450,-3.069,256747
0.368,-0.117,-1.085,-3.344,-3.908,-2.901,260758
0.359,-0.115,-1.083,-3.115,-1.786,-2.519,264769
0.361,-0.111,-1.078,-2.672,0.183,-1.939,268781
0.363,-0.115,-1.077,-2.397,1.908,-1.389,272792
0.365,-0.111,-1.077,-2.000,2.733,-0.947,276803
0.370,-0.115,-1.081,-1.756,4.137,-0.260,280815
0.375,-0.119,-1.076,-1.420,6.107,-0.061,284826
0.375,-0.121,-1.081,-1.237,6.260,0.336,288837
0.386,-0.129,-1.078,-1.191,6.031,0.321,292847
0.385,-0.126,-1.073,-0.977,5.130,0.351,296858
0.384,-0.129,-1.076,-1.130,4.107,-0.061,300869
0.383,-0.131,-1.078,-1.588,3.435,-0.305,304881
0.391,-0.136,-1.091,-1.908,1.939,-0.321,308892
0.384,-0.139,-1.083,-2.626,1.374,-0.458,312902
0.388,-0.149,-1.085,-3.206,0.947,-0.748,316913
0.393,-0.148,-1.085,-3.725,0.779,-0.885,320924
0.391,-0.136,-1.088,-4.046,0.336,-1.130,324935
0.386,-0.139,-1.079,-4.275,0.336,-1.282,328946
0.382,-0.136,-1.086,-4.718,0.214,-1.481,332967
0.382,-0.131,-1.086,-4.794,0.153,-1.573,336978
0.380,-0.128,-1.089,-4.794,0.153,-1.527,340990
0.383,-0.121,-1.083,-4.885,0.107,-1.893,345000
0.381,-0.130,-1.088,-4.687,0.656,-1.893,349011
0.380,-0.120,-1.081,-4.565,0.916,-1.756,353032
0.380,-0.111,-1.070,-4.321,1.282,-1.511,357043
0.379,-0.115,-1.075,-4.122,1.328,-1.496,361054
0.385,-0.115,-1.078,-3.924,1.191,-1.191,365065
0.385,-0.110,-1.073,-3.557,1.099,-1.344,369076
0.385,-0.111,-1.069,-3.237,1.115,-1.221,373088
0.381,-0.114,-1.080,-2.916,0.992,-1.099,377099
0.376,-0.116,-1.084,-2.351,0.962,-0.626,381110
0.385,-0.112,-1.074,-2.046,0.763,-0.550,385121
0.386,-0.111,-1.071,-1.557,0.809,-0.427,389132
0.377,-0.116,-1.075,-1.359,0.565,-0.153,393142
0.381,-0.118,-1.070,-1.359,0.809,0.137,397153
0.384,-0.119,-1.076,-1.252,0.809,0.382,401164
0.375,-0.115,-1.072,-1.389,0.626,0.290,405176
0.383,-0.123,-1.077,-1.557,0.947,0.366,409187
0.381,-0.125,-1.072,-1.496,1.221,0.137,413207
0.384,-0.127,-1.078,-1.695,1.191,0.168,417217
0.388,-0.131,-1.079,-1.832,1.084,0.107,421228
0.390,-0.127,-1.081,-2.000,1.038,-0.061,425239
0.391,-0.131,-1.066,-2.336,1.679,0.076,429250
0.402,-0.131,-1.076,-2.321,1.450,-0.031,433270
0.397,-0.135,-1.088,-2.351,0.565,-0.107,437281
0.395,-0.134,-1.089,-2.366,-0.092,-0.275,441292
0.393,-0.132,-1.086,-2.504,-0.947,-0.443,445303
0.393,-0.133,-1.088,-2.519,-0.962,-0.458,449314
0.386,-0.132,-1.079,-2.183,-0.824,-0.397,453334
0.393,-0.129,-1.081,-2.107,-1.450,-0.580,457344
0.389,-0.131,-1.077,-1.939,-1.771,-0.733,461355
0.390,-0.128,-1.075,-1.588,-1.099,-0.489,465366
0.384,-0.126,-1.081,-1.481,-0.031,-0.489,469377
0.392,-0.128,-1.076,-1.130,0.916,-0.015,473388
0.393,-0.127,-1.073,-0.763,1.679,0.015,477399
0.396,-0.133,-1.082,-0.916,1.985,0.183,481410
0.395,-0.131,-1.081,-0.855,2.198,0.153,485421
0.402,-0.129,-1.077,-0.779,3.420,0.397,489432
0.398,-0.136,-1.075,-0.840,3.649,0.214,493444
0.398,-0.129,-1.079,-0.962,3.282,0.275,497455
0.410,-0.135,-1.085,-1.252,2.595,0.183,501466
0.397,-0.137,-1.091,-1.450,2.153,0.000,505477
0.407,-0.137,-1.082,-1.786,2.046,0.031,509488
0.410,-0.133,-1.093,-2.031,1.679,-0.107,513499
0.406,-0.137,-1.084,-2.458,0.962,-0.290,517509
0.403,-0.131,-1.095,-2.611,0.626,-0.534,521520
0.393,-0.122,-1.094,-2.580,0.519,-0.626,525531
0.393,-0.127,-1.093,-2.870,0.687,-0.855,529542
0.386,-0.127,-1.084,-2.962,-0.015,-0.916,533557
0.386,-0.125,-1.097,-2.977,-0.702,-1.252,537569
0.386,-0.121,-1.091,-2.931,0.198,-0.992,541579
0.385,-0.119,-1.092,-2.885,1.649,-0.992,545590
0.388,-0.124,-1.092,-2.992,2.687,-0.763,549602
0.389,-0.117,-1.082,-2.718,3.298,-0.565,553621
0.402,-0.121,-1.089,-2.931,3.618,-0.824,557633
0.401,-0.122,-1.087,-3.130,4.351,-0.916,561644
0.396,-0.123,-1.087,-3.206,5.328,-0.687,565655
0.401,-0.124,-1.088,-3.511,5.191,-0.641,569666
0.401,-0.119,-1.088,-3.649,4.244,-1.053,573687
0.394,-0.116,-1.086,-3.756,3.313,-0.855,577699
0.396,-0.119,-1.084,-4.031,2.290,-1.344,581710
0.394,-0.122,-1.076,-4.183,1.969,-1.298,585721
0.403,-0.118,-1.080,-4.061,1.023,-1.588,589732
0.404,-0.114,-1.088,-4.000,0.336,-1.817,593745
0.404,-0.115,-1.084,-3.969,0.122,-1.847,597756
0.397,-0.112,-1.086,-3.908,-0.458,-1.817,601767
0.401,-0.114,-1.083,-3.756,-0.901,-1.863,605779
0.400,-0.118,-1.093,-3.603,-1.130,-2.046,609790
0.396,-0.119,-1.094,-3.542,-1.389,-1.679,613802
0.389,-0.121,-1.083,-3.450,-1.527,-1.893,617812
0.394,-0.120,-1.091,-3.695,-1.817,-1.847,621823
0.390,-0.123,-1.088,-3.740,-2.565,-1.863,625834
0.379,-0.115,-1.083,-3.725,-2.336,-1.695,629845
0.381,-0.118,-1.082,-3.954,-2.366,-1.710,633866
0.387,-0.117,-1.078,-4.305,-2.061,-1.542,637877
0.390,-0.114,-1.078,-4.351,-1.939,-1.649,641888
0.393,-0.114,-1.091,-4.382,-2.031,-1.618,645899
0.391,-0.114,-1.078,-4.443,-2.275,-1.664,649918
0.403,-0.111,-1.084,-4.565,-1.924,-1.298,653929
0.406,-0.114,-1.083,-4.702,-1.542,-1.344,657940
0.414,-0.119,-1.080,-4.763,-2.229,-1.359,661951
0.424,-0.129,-1.085,-4.748,-2.947,-1.344,665962
0.434,-0.129,-1.087,-5.069,-4.443,-1.389,669973
0.439,-0.135,-1.082,-5.374,-6.794,-1.527,673984
0.454,-0.144,-1.081,-5.649,-8.931,-1.893,677995
0.465,-0.142,-1.066,-6.153,-12.183,-2.489,682006
0.487,-0.139,-1.085,-6.107,-15.328,-2.565,686017
0.505,-0.135,-1.073,-6.748,-18.840,-3.099,690028
0.526,-0.132,-1.080,-6.840,-22.901,-3.969,694039
0.549,-0.135,-1.094,-7.878,-28.000,-5.053,698050
0.594,-0.143,-1.098,-9.023,-33.939,-6.504,702061
0.637,-0.153,-1.088,-11.359,-41.695,-8.214,706072
0.664,-0.162,-1.089,-13.863,-51.160,-10.321,710084
0.688,-0.168,-1.103,-17.038,-64.214,-12.580,714095
0.719,-0.184,-1.114,-21.496,-80.092,-14.229,718107
0.742,-0.191,-1.108,-26.260,-97.817,-16.015,722118
0.764,-0.203,-1.114,-31.344,-118.718,-17.802,726129
0.792,-0.211,-1.122,-36.504,-141.389,-19.053,730140
0.806,-0.218,-1.125,-41.008,-165.298,-19.573,734151
0.809,-0.211,-1.117,-45.252,-192.763,-19.771,738158
0.817,-0.198,-1.093,-48.305,-215.664,-18.885,742169
0.794,-0.164,-1.074,-49.954,-229.817,-16.244,746180
0.750,-0.125,-1.110,-50.565,-262.137,-15.450,750191
0.700,-0.093,-1.096,-50.000,-287.008,-14.015,754202
0.625,-0.042,-1.112,-46.565,-318.351,-14.229,758214
0.490,0.026,-1.096,-40.153,-347.695,-15.679,762224
0.383,0.084,-1.089,-32.504,-369.450,-15.359,766235
0.364,0.119,-1.084,-21.771,-390.458,6.656,770246
0.226,0.107,-1.025,-10.214,-396.885,14.305,774257
0.119,0.150,-1.027,-2.183,-404.702,25.176,778269
0.112,0.204,-1.048,-2.076,-393.924,21.313,782280
-0.039,0.259,-1.007,-13.420,-384.061,-6.397,786292
-0.156,0.268,-0.970,-21.618,-370.504,-42.809,790302
-0.204,0.116,-1.009,-30.992,-353.450,-85.221,794313
-0.054,0.061,-1.092,-15.511,-332.336,-72.748,798324
-0.204,-0.001,-0.968,2.321,-323.466,-81.053,802335
-0.274,0.020,-0.873,28.748,-299.710,-70.840,806346
-0.352,-0.042,-0.872,44.565,-283.191,-69.908,810358
-0.386,-0.091,-0.934,71.053,-264.779,-70.962,814369
-0.344,-0.155,-1.002,77.374,-251.969,-79.267,818380
-0.378,-0.103,-0.981,82.046,-236.794,-92.977,822391
-0.385,-0.219,-0.836,83.267,-233.817,-89.344,826402
-0.388,-0.224,-0.851,101.954,-219.008,-58.504,830414
-0.451,-0.255,-0.889,101.069,-218.244,-54.260,834425
-0.473,-0.253,-0.912,101.115,-207.954,-44.290,838435
-0.175,0.000,-1.524,39.206,-189.863,-74.443,842446
-0.473,-0.215,-1.014,45.511,-230.992,-81.038,846457
-0.456,-0.187,-1.009,44.107,-251.725,-81.069,850468
-0.359,-0.317,-0.911,45.053,-226.901,-53.924,854479
-0.414,-0.284,-0.954,48.122,-229.725,-56.733,858490
-0.434,-0.222,-1.073,47.084,-249.985,-75.496,862502
-0.409,-0.317,-0.957,49.435,-259.206,-77.313,866513
-0.422,-0.306,-0.925,49.618,-256.137,-87.282,870524
-0.390,-0.329,-0.908,50.855,-248.427,-90.153,874535
-0.277,-0.434,-0.898,53.664,-240.855,-69.466,878546
-0.376,-0.357,-0.903,55.282,-240.351,-61.023,882557
-0.387,-0.371,-0.901,57.618,-245.771,-55.450,886568
-0.395,-0.384,-0.853,58.458,-232.137,-52.962,890580
-0.415,-0.380,-0.870,60.611,-227.664,-52.061,894591
-0.440,-0.364,-0.868,65.252,-230.779,-57.420,898603
-0.417,-0.391,-0.875,66.534,-227.084,-58.397,902613
-0.414,-0.396,-0.859,67.053,-222.321,-60.626,906624
-0.424,-0.400,-0.865,65.954,-217.466,-64.931,910635
-0.442,-0.404,-0.869,65.221,-212.656,-67.328,914646
-0.464,-0.409,-0.896,63.496,-208.382,-69.176,918657
-0.496,-0.410,-0.891,61.115,-202.763,-71.847,922678
-0.530,-0.413,-0.890,58.153,-195.725,-74.076,926689
-0.567,-0.394,-0.912,54.870,-187.618,-76.794,930700
-0.610,-0.378,-0.927,51.053,-180.763,-78.702,934711
-0.665,-0.357,-0.958,47.328,-175.084,-76.015,938723
-0.724,-0.346,-0.960,42.809,-165.725,-67.527,942736
-0.793,-0.311,-0.977,36.656,-155.069,-64.351,946747
-0.898,-0.251,-0.963,22.962,-145.664,-75.069,950758
-0.806,-0.341,-1.084,23.924,-124.092,-74.901,954769
-0.920,-0.240,-1.018,6.137,-114.260,-70.336,958781
-0.997,-0.231,-1.013,1.649,-89.878,-84.672,962792
-0.938,-0.245,-1.159,9.053,-76.260,-76.656,966803
-0.980,-0.228,-1.075,1.832,-56.382,-77.878,970815
-1.000,-0.254,-1.009,10.992,-30.061,-65.374,974826
-0.983,-0.243,-1.120,6.962,-17.435,-59.130,978837
-0.982,-0.237,-1.080,2.458,8.244,-54.015,982847
-0.970,-0.246,-1.107,-0.198,23.328,-48.779,986858
-0.896,-0.264,-1.128,-4.015,36.336,-32.672,990869
-0.912,-0.243,-1.093,-8.916,58.977,-24.595,994881
-0.875,-0.241,-1.122,-13.191,63.313,-15.969,998892
-0.839,-0.236,-1.111,-14.061,71.008,-8.611,1002903
-0.795,-0.227,-1.080,-18.092,80.672,1.786,1006913
-0.789,-0.213,-1.066,-21.145,85.527,3.695,1010924
-0.739,-0.225,-1.011,-21.939,87.053,13.496,1014935
-0.723,-0.200,-1.013,-22.992,92.382,20.137,1018946
-0.700,-0.184,-1.013,-29.389,92.519,22.198,1022967
-0.708,-0.168,-0.964,-32.534,94.122,25.359,1026978
-0.695,-0.156,-0.960,-41.344,94.947,26.870,1030989
-0.692,-0.157,-0.940,-43.267,101.893,29.481,1035000
-0.699,-0.145,-0.881,-49.802,103.405,33.008,1039011
-0.731,-0.097,-0.826,-56.672,121.023,27.725,1043032
-0.761,-0.029,-0.965,-72.153,130.626,5.985,1047043
-0.750,-0.065,-0.873,-77.023,138.718,3.466,1051054
-0.693,-0.036,-0.863,-85.053,164.718,-0.489,1055065
-0.720,-0.043,-0.854,-88.809,176.122,-6.366,1059076
-0.946,-0.177,-0.723,-80.977,191.496,-9.756,1063088
-0.784,-0.451,-0.104,-14.336,205.008,43.618,1067099
-0.754,-0.038,-0.684,-19.954,264.076,19.527,1071110
-0.614,-0.146,-0.689,-18.565,313.374,21.130,1075121
-0.671,-0.065,-0.806,-16.168,312.351,-12.840,1079132
-0.487,-0.251,-0.791,-10.458,333.221,2.855,1083142
-0.428,-0.224,-0.715,-11.817,392.641,7.221,1087153
-0.351,-0.296,-0.681,9.863,413.588,7.099,1091164
-0.180,-0.340,-0.864,25.954,431.954,44.092,1095176
-0.045,-0.198,-0.812,35.527,451.008,46.779,1099187
-0.054,-0.324,-0.816,52.031,429.649,46.687,1103207
0.041,-0.300,-0.809,58.092,419.740,54.763,1107217
-0.040,-0.365,-0.732,89.435,418.870,74.229,1111228
-0.236,-0.167,-1.080,-14.198,384.748,-60.061,1115239
0.128,-0.372,-1.014,-8.443,337.771,-17.771,1119250
0.019,-0.332,-0.896,-13.389,312.565,22.931,1123270
0.004,-0.307,-0.978,-12.962,292.397,16.870,1127281
0.069,-0.539,-0.920,-14.244,289.603,34.779,1131292
0.015,-0.360,-0.996,-16.656,245.740,11.282,1135303
0.052,-0.377,-0.980,-17.695,209.908,1.679,1139314
0.141,-0.414,-0.877,-22.855,238.061,0.580,1143334
0.140,-0.404,-0.900,-27.740,256.351,-5.557,1147344
0.214,-0.421,-0.917,-32.305,267.176,4.504,1151355
0.211,-0.391,-0.935,-36.794,274.076,5.282,1155366
0.267,-0.381,-0.931,-40.733,286.534,10.198,1159377
0.294,-0.369,-0.907,-43.756,308.595,13.389,1163388
0.295,-0.355,-0.963,-45.374,305.664,13.191,1167399
0.270,-0.333,-1.008,-46.824,287.466,2.229,1171410
0.336,-0.338,-1.011,-47.939,266.260,4.046,1175421
0.336,-0.311,-1.015,-49.435,250.901,12.687,1179432
0.339,-0.302,-1.046,-50.336,226.290,12.458,1183444
0.363,-0.296,-1.042,-50.809,196.855,11.740,1187455
0.374,-0.286,-1.033,-51.099,174.137,11.863,1191466
0.370,-0.271,-1.047,-50.244,151.573,11.557,1195477
0.368,-0.252,-1.026,-49.313,133.527,11.282,1199488
0.359,-0.237,-1.036,-48.794,122.702,12.031,1203499
0.340,-0.217,-1.036,-47.130,113.298,12.595,1207509
0.326,-0.218,-1.029,-45.527,112.855,13.908,1211520
0.327,-0.209,-1.042,-43.634,115.466,16.336,1215531
0.327,-0.203,-1.042,-41.573,117.420,19.496,1219542
0.309,-0.189,-1.042,-39.420,120.550,18.580,1223557
0.309,-0.182,-1.057,-37.420,122.137,19.115,1227569
0.313,-0.181,-1.065,-35.664,125.542,18.656,1231579
0.327,-0.188,-1.071,-34.382,124.427,18.962,1235590
0.341,-0.196,-1.070,-33.252,119.450,18.763,1239602
0.354,-0.203,-1.075,-32.443,112.779,18.015,1243621
0.366,-0.204,-1.079,-31.573,103.481,16.992,1247633
0.357,-0.205,-1.093,-30.824,93.298,15.863,1251644
0.363,-0.207,-1.095,-30.321,81.191,14.443,1255655
0.365,-0.197,-1.097,-29.771,69.985,13.115,1259666
0.376,-0.199,-1.096,-29.511,62.351,12.122,1263687
0.362,-0.184,-1.105,-28.565,50.489,9.908,1267699
0.367,-0.179,-1.087,-27.435,45.191,9.053,1271710
0.367,-0.172,-1.079,-26.000,40.672,8.076,1275721
0.365,-0.165,-1.080,-24.443,40.458,8.046,1279732
0.370,-0.162,-1.076,-22.794,42.580,8.122,1283745
0.380,-0.164,-1.086,-20.595,42.519,7.924,1287756
0.380,-0.160,-1.080,-18.885,43.924,8.244,1291767
0.385,-0.157,-1.083,-17.344,45.023,8.397,1295779
0.385,-0.159,-1.077,-15.649,47.099,9.008,1299790
0.382,-0.157,-1.096,-13.985,45.053,8.718,1303802
0.384,-0.156,-1.100,-12.611,40.351,7.893,1307812
0.379,-0.157,-1.106,-11.008,33.985,7.069,1311823
0.379,-0.156,-1.115,-9.389,27.802,6.366,1315834
0.381,-0.157,-1.120,-8.229,21.924,5.145,1319845
0.381,-0.156,-1.109,-6.916,15.252,4.092,1323866
0.395,-0.154,-1.100,-6.000,11.389,3.084,1327877
0.387,-0.153,-1.118,-4.687,4.656,1.618,1331888
0.386,-0.156,-1.113,-4.061,1.023,0.595,1335899
0.376,-0.160,-1.112,-3.405,-1.985,-0.153,1339918
0.363,-0.168,-1.121,-2.885,-5.313,-0.992,1343929
0.369,-0.180,-1.128,-3.053,-6.824,-1.511,1347940
0.365,-0.184,-1.129,-3.420,-9.145,-2.061,1351951
0.360,-0.193,-1.129,-4.153,-11.344,-2.718,1355962
0.352,-0.208,-1.131,-5.053,-12.122,-2.916,1359973
0.341,-0.207,-1.132,-6.092,-13.634,-2.840,1363984
0.332,-0.206,-1.125,-7.145,-14.336,-2.763,1367995
0.329,-0.200,-1.138,-7.908,-14.962,-2.427,1372006
0.327,-0.191,-1.132,-8.656,-15.298,-2.656,1376017
0.330,-0.185,-1.137,-9.145,-14.626,-2.565,1380028
0.329,-0.176,-1.126,-9.450,-13.710,-2.489,1384039
0.324,-0.179,-1.135,-9.618,-12.565,-2.580,1388050
0.336,-0.175,-1.134,-9.130,-12.656,-2.840,1392061
0.332,-0.169,-1.131,-8.733,-11.817,-3.389,1396072
0.326,-0.161,-1.122,-7.725,-10.885,-3.527,1400084
0.324,-0.154,-1.121,-6.565,-11.969,-3.954,1404095
0.325,-0.149,-1.133,-5.420,-12.443,-4.153,1408107
0.320,-0.154,-1.128,-3.847,-13.679,-4.641,1412118
0.325,-0.151,-1.124,-2.214,-13.573,-4.687,1416129
0.327,-0.155,-1.129,-0.779,-13.557,-4.763,1420140
0.318,-0.157,-1.136,0.702,-14.153,-4.550,1424151
0.316,-0.157,-1.136,1.847,-14.260,-4.229,1428158
0.308,-0.167,-1.128,2.397,-14.153,-3.924,1432169
0.299,-0.178,-1.125,3.160,-13.664,-3.496,1436180
0.303,-0.188,-1.130,3.542,-12.992,-3.053,1440191
0.304,-0.188,-1.136,3.802,-12.427,-2.763,1444202
0.297,-0.198,-1.132,3.588,-10.840,-2.183,1448214
0.307,-0.212,-1.132,2.733,-8.565,-1.618,1452224
0.312,-0.215,-1.128,1.496,-6.076,-1.313,1456235
0.317,-0.235,-1.134,-0.061,-5.740,-1.313,1460246
0.336,-0.235,-1.128,-1.649,-3.481,-1.695,1464257
0.354,-0.242,-1.126,-3.618,-0.809,-1.573,1468269
0.355,-0.243,-1.125,-5.649,-0.183,-1.740,1472280
0.359,-0.234,-1.130,-7.221,-1.557,-1.817,1476292
0.366,-0.224,-1.133,-8.748,-4.916,-1.985,1480302
0.360,-0.221,-1.132,-9.756,-8.229,-2.779,1484313
0.361,-0.213,-1.122,-10.718,-12.168,-3.664,1488324
0.356,-0.208,-1.135,-11.466,-18.260,-4.885,1492335
0.350,-0.205,-1.116,-11.588,-21.038,-6.107,1496346
0.335,-0.198,-1.131,-11.359,-27.008,-7.344,1500358
0.333,-0.191,-1.122,-10.763,-31.145,-8.534,1504369
0.323,-0.186,-1.112,-10.229,-31.664,-8.901,1508380
0.315,-0.185,-1.109,-9.603,-32.626,-9.023,1512391
0.308,-0.185,-1.101,-8.840,-29.756,-8.702,1516402
0.295,-0.184,-1.103,-8.229,-25.939,-8.214,1520414
0.285,-0.195,-1.087,-7.679,-22.397,-7.679,1524425
0.291,-0.188,-1.089,-7.252,-16.458,-6.611,1528435
0.287,-0.199,-1.090,-7.344,-12.244,-5.847,1532446
0.296,-0.196,-1.096,-7.313,-10.076,-4.962,1536457
0.302,-0.202,-1.077,-7.695,-5.115,-3.725,1540468
0.289,-0.201,-1.083,-7.634,-3.863,-3.053,1544479
0.297,-0.201,-1.073,-7.954,-3.511,-2.534,1548490
0.300,-0.200,-1.088,-8.153,-5.252,-2.137,1552502
0.294,-0.198,-1.078,-8.183,-8.244,-2.260,1556513
0.296,-0.198,-1.090,-8.489,-10.198,-2.153,1560524
0.283,-0.194,-1.088,-8.580,-11.115,-2.153,1564535
0.282,-0.192,-1.089,-8.427,-13.328,-2.321,1568546
0.270,-0.179,-1.089,-8.321,-16.733,-2.611,1572557
0.266,-0.180,-1.088,-8.061,-15.756,-2.565,1576568
0.260,-0.168,-1.087,-7.221,-14.107,-1.908,1580580
0.251,-0.165,-1.084,-6.397,-10.779,-1.053,1584591
0.251,-0.163,-1.100,-5.740,-8.351,-0.137,1588603
0.252,-0.154,-1.086,-4.763,-4.824,-0.809,1592613
0.262,-0.168,-1.079,-4.244,0.947,-1.313,1596624
0.278,-0.179,-1.084,-3.634,3.985,-1.160,1600635
0.298,-0.175,-1.087,-3.664,9.618,-0.290,1604646
0.297,-0.182,-1.080,-3.527,10.702,-0.107,1608657
0.306,-0.179,-1.093,-3.802,12.275,0.473,1612678
0.310,-0.181,-1.093,-4.336,12.290,0.840,1616689
0.311,-0.185,-1.097,-4.565,8.183,0.473,1620700
0.310,-0.186,-1.106,-5.069,4.519,0.046,1624711
0.306,-0.190,-1.104,-5.176,-0.931,-0.550,1628723
0.298,-0.173,-1.098,-5.420,-5.847,-1.405,1632736
0.289,-0.173,-1.110,-5.817,-9.298,-2.214,1636747
0.280,-0.163,-1.106,-5.710,-15.908,-3.252,1640758
0.270,-0.158,-1.097,-5.924,-17.313,-4.046,1644769
0.267,-0.156,-1.093,-5.695,-17.603,-4.870,1648781
0.257,-0.153,-1.087,-5.756,-14.794,-4.672,1652792
0.248,-0.148,-1.100,-5.328,-11.206,-3.939,1656803
0.240,-0.146,-1.099,-4.779,-7.908,-3.344,1660815
0.230,-0.147,-1.093,-4.504,-2.397,-2.519,1664826
0.227,-0.152,-1.084,-3.756,4.183,-3.221,1668837
0.238,-0.154,-1.097,-2.992,8.702,-2.824,1672847
0.258,-0.159,-1.091,-2.687,15.481,-1.511,1676858
0.270,-0.160,-1.098,-2.458,18.809,-0.794,1680869
0.282,-0.158,-1.092,-2.519,20.595,-0.122,1684881
0.293,-0.168,-1.101,-2.443,21.679,0.504,1688892
0.306,-0.165,-1.104,-2.305,19.038,0.779,1692902
0.311,-0.166,-1.108,-2.305,15.313,0.916,1696913
0.305,-0.166,-1.110,-2.336,10.031,0.168,1700924
0.323,-0.164,-1.118,-2.382,2.901,-0.611,1704935
0.319,-0.164,-1.112,-2.519,-3.466,-1.237,1708946
0.326,-0.165,-1.116,-2.733,-6.626,-1.573,1712967
0.311,-0.169,-1.123,-2.916,-13.847,-2.366,1716978
0.297,-0.166,-1.113,-3.221,-18.092,-3.160,1720990
0.289,-0.168,-1.101,-3.206,-20.000,-3.573,1725000
0.283,-0.166,-1.111,-2.992,-21.511,-4.000,1729011
0.275,-0.161,-1.112,-2.641,-19.618,-3.878,1733032
0.263,-0.159,-1.113,-2.122,-17.985,-3.802,1737043
0.251,-0.157,-1.105,-1.771,-15.435,-3.969,1741054
0.245,-0.155,-1.105,-1.298,-11.008,-2.611,1745065
0.227,-0.159,-1.119,-0.840,-5.924,-1.924,1749076
0.228,-0.160,-1.127,-0.626,-0.275,-1.649,1753088
0.230,-0.158,-1.120,0.046,4.641,-1.573,1757099
0.244,-0.168,-1.131,0.565,8.519,-1.053,1761110
0.246,-0.168,-1.116,0.855,13.740,-0.229,1765121
0.247,-0.167,-1.121,1.160,16.260,0.137,1769132
0.254,-0.170,-1.113,1.664,19.282,0.885,1773142
0.263,-0.172,-1.131,1.863,19.969,1.130,1777153
0.273,-0.163,-1.123,2.198,19.603,1.298,1781164
0.282,-0.172,-1.125,2.275,19.481,1.344,1785176
0.287,-0.170,-1.119,2.458,17.573,1.069,1789187
0.295,-0.172,-1.132,2.504,15.023,0.763,1793207
0.295,-0.179,-1.118,2.443,12.489,0.458,1797217
0.292,-0.175,-1.121,2.275,9.481,0.489,1801228
0.296,-0.176,-1.119,2.183,7.740,0.458,1805239
0.297,-0.185,-1.116,1.878,6.611,0.641,1809250
0.297,-0.185,-1.118,1.664,4.183,0.153,1813270
0.304,-0.183,-1.112,1.237,3.191,0.336,1817281
0.302,-0.187,-1.102,0.840,2.809,0.336,1821292
0.304,-0.187,-1.111,0.412,3.252,0.458,1825303
0.302,-0.191,-1.117,-0.122,2.687,0.718,1829314
0.300,-0.184,-1.115,-0.489,2.427,0.763,1833334
0.298,-0.183,-1.112,-0.794,1.954,0.885,1837344
0.284,-0.185,-1.130,-0.962,1.573,0.733,1841355
0.295,-0.182,-1.110,-1.374,1.237,0.855,1845366
0.283,-0.179,-1.118,-1.282,0.366,0.672,1849377
0.281,-0.172,-1.109,-1.115,-0.885,0.290,1853388
0.280,-0.178,-1.101,-1.160,-0.382,0.198,1857399
0.277,-0.172,-1.116,-1.313,-0.046,0.214,1861410
0.268,-0.173,-1.103,-1.145,0.229,-0.092,1865421
0.273,-0.175,-1.110,-1.221,0.901,-0.397,1869432
0.276,-0.177,-1.102,-1.359,1.802,-0.550,1873444
0.276,-0.177,-1.100,-1.389,3.115,-0.458,1877455
0.272,-0.174,-1.103,-1.206,4.366,-0.641,1881466
0.283,-0.176,-1.104,-1.298,4.916,-0.412,1885477
0.287,-0.175,-1.107,-1.160,5.206,-0.443,1889488
0.295,-0.174,-1.102,-1.130,6.794,-0.321,1893499
0.293,-0.175,-1.104,-1.267,7.695,-0.198,1897509
0.292,-0.180,-1.107,-1.527,7.115,-0.015,1901520
0.301,-0.195,-1.107,-1.924,6.412,0.061,1905531
0.318,-0.195,-1.102,-2.092,5.557,-0.122,1909542
0.312,-0.187,-1.107,-2.198,5.008,-0.031,1913557
0.311,-0.191,-1.107,-2.733,3.603,0.366,1917569
0.307,-0.191,-1.101,-2.916,0.931,0.427,1921579
0.299,-0.187,-1.108,-3.099,-0.580,0.168,1925590
0.303,-0.189,-1.109,-3.374,-1.008,0.290,1929602
0.295,-0.186,-1.107,-3.206,-2.885,0.107,1933621
0.299,-0.184,-1.099,-3.191,-4.015,-0.366,1937633
0.294,-0.189,-1.101,-3.099,-3.939,-0.550,1941644
0.294,-0.179,-1.097,-3.130,-3.206,-0.550,1945655
0.294,-0.176,-1.097,-3.084,-1.374,-0.626,1949666
0.301,-0.179,-1.114,-2.397,-0.733,-0.824,1953687
0.295,-0.170,-1.100,-2.015,0.198,-0.748,1957699
0.298,-0.172,-1.106,-1.450,0.824,-0.901,1961710
0.297,-0.171,-1.105,-1.008,1.359,-0.779,1965721
0.302,-0.172,-1.097,-0.916,2.718,-0.641,1969732
0.307,-0.175,-1.101,-0.611,2.427,-0.840,1973745
0.303,-0.177,-1.111,-0.565,1.908,-1.115,1977756
0.306,-0.179,-1.110,-0.427,0.947,-1.237,1981767
0.310,-0.181,-1.109,-0.595,0.321,-1.176,1985779
0.308,-0.176,-1.106,-0.718,0.137,-1.069,1989790
0.310,-0.185,-1.110,-0.931,-0.489,-1.344,1993802
0.316,-0.180,-1.109,-1.344,-1.206,-1.298,1997813
0.310,-0.185,-1.120,-1.664,-1.710,-1.496,2001823
