acc_x,acc_y,acc_z,gyro_x,gyro_y,gyro_z,time
0.124,-0.048,-1.157,-3.511,-54.061,-8.397,0
0.113,-0.053,-1.152,-4.489,-56.031,-8.519,4047
0.117,-0.054,-1.158,-5.313,-57.817,-9.084,8060
0.110,-0.047,-1.153,-5.664,-59.374,-9.557,12072
0.103,-0.039,-1.147,-6.290,-60.763,-10.015,16082
0.095,-0.043,-1.147,-6.382,-62.000,-10.412,20093
0.083,-0.036,-1.144,-6.168,-62.824,-10.611,24105
0.070,-0.033,-1.140,-5.908,-63.221,-10.534,28116
0.061,-0.024,-1.139,-5.863,-64.000,-10.565,32127
0.056,-0.021,-1.135,-5.740,-64.229,-11.206,36139
0.047,-0.024,-1.137,-5.603,-64.046,-11.710,40150
0.036,-0.025,-1.138,-5.160,-63.817,-12.458,44161
0.022,-0.025,-1.137,-4.763,-63.603,-12.626,48170
0.019,-0.022,-1.125,-4.366,-62.916,-13.481,52181
0.017,-0.024,-1.131,-3.771,-62.321,-13.664,56192
0.010,-0.020,-1.137,-4.061,-61.267,-13.954,60203
0.007,-0.022,-1.126,-4.122,-61.099,-14.168,64214
0.017,-0.025,-1.115,-3.924,-61.084,-14.656,68225
0.021,-0.026,-1.125,-3.649,-61.176,-14.992,72236
0.032,-0.038,-1.119,-3.344,-61.313,-15.145,76247
0.037,-0.037,-1.122,-3.069,-61.588,-15.603,80258
0.027,-0.040,-1.113,-2.534,-62.504,-15.282,84269
0.018,-0.035,-1.124,-2.198,-62.397,-16.092,88281
-0.003,-0.042,-1.122,-1.405,-61.710,-16.015,92292
-0.013,-0.039,-1.139,-0.824,-60.397,-15.282,96303
-0.014,-0.039,-1.130,-0.397,-59.573,-15.832,100314
-0.016,-0.039,-1.132,-0.305,-58.656,-17.038,104325
-0.043,-0.048,-1.137,-0.229,-57.985,-17.221,108338
-0.032,-0.042,-1.135,-0.458,-57.832,-16.840,112350
-0.027,-0.053,-1.145,-0.550,-57.313,-16.122,116361
-0.025,-0.057,-1.148,-0.901,-57.939,-15.893,120372
-0.019,-0.051,-1.134,-1.634,-58.672,-16.260,124383
-0.019,-0.061,-1.149,-2.031,-59.634,-16.840,128394
-0.012,-0.060,-1.139,-2.260,-60.931,-17.206,132406
-0.012,-0.060,-1.129,-2.809,-61.908,-16.977,136417
-0.009,-0.048,-1.131,-3.115,-64.000,-17.924,140429
-0.006,-0.036,-1.132,-3.252,-63.573,-19.038,144440
-0.026,-0.042,-1.110,-3.298,-63.603,-18.412,148450
-0.013,-0.032,-1.118,-3.267,-64.687,-19.328,152461
-0.025,-0.029,-1.114,-2.885,-66.015,-21.145,156472
-0.037,-0.030,-1.114,-2.397,-66.061,-22.580,160483
-0.059,-0.028,-1.112,-1.282,-65.466,-22.504,164494
-0.070,-0.026,-1.116,-0.565,-64.473,-22.076,168505
-0.080,-0.023,-1.115,0.504,-64.397,-22.534,172516
-0.088,-0.018,-1.114,1.176,-63.603,-23.634,176527
-0.104,-0.021,-1.115,1.908,-63.237,-24.489,180538
-0.116,-0.024,-1.115,2.595,-63.145,-24.061,184549
-0.112,-0.036,-1.109,2.916,-62.244,-23.924,188560
-0.121,-0.022,-1.111,3.496,-60.672,-23.588,192571
-0.111,-0.021,-1.103,3.649,-59.603,-22.992,196582
-0.104,-0.016,-1.102,3.695,-59.985,-23.130,200593
-0.086,-0.012,-1.104,3.771,-60.351,-23.924,204604
-0.078,-0.009,-1.101,3.618,-60.855,-24.321,208616
-0.069,-0.010,-1.083,3.939,-61.893,-23.985,212627
-0.062,-0.013,-1.069,4.931,-63.985,-23.420,216639
-0.052,-0.006,-1.086,5.466,-66.214,-22.947,220649
-0.042,-0.004,-1.085,6.412,-68.153,-23.145,224660
-0.042,-0.013,-1.081,7.695,-70.626,-24.214,228672
-0.048,-0.015,-1.100,8.748,-73.969,-24.504,232691
-0.065,-0.025,-1.099,8.550,-77.893,-26.397,236702
-0.096,-0.033,-1.072,10.626,-83.435,-28.076,240713
-0.121,-0.051,-1.093,10.718,-89.237,-30.595,244724
-0.154,-0.067,-1.092,10.305,-92.061,-31.756,248737
-0.158,-0.078,-1.081,10.183,-96.779,-31.985,252748
-0.146,-0.077,-1.063,10.397,-100.992,-32.672,256759
-0.156,-0.080,-1.061,10.504,-103.206,-34.458,260770
-0.185,-0.081,-1.065,11.115,-105.069,-35.267,264781
-0.209,-0.087,-1.053,11.527,-107.130,-36.015,268794
-0.249,-0.092,-1.054,11.450,-108.824,-35.985,272805
-0.281,-0.101,-1.052,11.389,-109.481,-34.748,276816
-0.297,-0.107,-1.054,11.435,-108.901,-33.817,280827
-0.320,-0.110,-1.047,10.962,-108.565,-32.779,284838
-0.321,-0.118,-1.048,11.130,-107.847,-32.214,288849
-0.338,-0.116,-1.054,11.603,-106.931,-32.275,292859
-0.343,-0.115,-1.062,12.305,-105.695,-32.443,296870
-0.351,-0.122,-1.065,13.267,-104.473,-31.863,300881
-0.371,-0.125,-1.091,13.053,-103.481,-30.351,304892
-0.383,-0.133,-1.082,13.145,-102.458,-28.412,308904
-0.390,-0.144,-1.073,13.344,-100.809,-26.305,312915
-0.391,-0.154,-1.081,13.893,-100.718,-23.924,316926
-0.378,-0.158,-1.074,13.160,-101.878,-21.466,320937
-0.383,-0.167,-1.065,12.916,-97.420,-20.061,324948
-0.378,-0.164,-1.071,12.916,-96.122,-16.763,328959
-0.373,-0.154,-1.045,11.863,-95.267,-16.718,332979
-0.359,-0.152,-1.045,11.969,-96.687,-16.336,336989
-0.347,-0.135,-1.033,12.870,-97.328,-15.511,341000
-0.359,-0.140,-1.034,14.260,-95.527,-14.427,345011
-0.354,-0.128,-1.021,15.954,-96.489,-12.779,349022
-0.354,-0.127,-1.011,17.053,-97.771,-12.061,353043
-0.351,-0.127,-1.008,18.763,-99.237,-11.557,357054
-0.344,-0.135,-0.994,20.198,-100.489,-11.725,361065
-0.346,-0.147,-1.001,21.740,-102.305,-11.252,365076
-0.354,-0.155,-0.991,22.183,-104.290,-11.176,369087
-0.350,-0.164,-0.984,22.366,-105.038,-12.504,373101
-0.357,-0.168,-0.991,22.794,-107.282,-12.870,377111
-0.360,-0.177,-0.990,22.519,-108.550,-13.618,381122
-0.360,-0.170,-0.996,22.031,-108.870,-15.450,385133
-0.364,-0.177,-0.984,22.076,-111.420,-16.504,389144
-0.385,-0.174,-0.981,20.779,-112.550,-17.344,393154
-0.414,-0.176,-0.974,20.275,-114.275,-17.954,397165
-0.428,-0.181,-0.979,19.160,-115.084,-18.305,401176
-0.432,-0.181,-0.966,18.458,-116.718,-17.695,405187
-0.437,-0.178,-0.963,18.260,-118.122,-16.870,409198
-0.426,-0.169,-0.962,17.893,-118.824,-18.153,413218
-0.453,-0.187,-0.972,16.885,-119.206,-18.733,417229
-0.485,-0.200,-0.961,14.534,-118.840,-19.908,421240
-0.493,-0.188,-0.951,13.802,-117.267,-21.954,425251
-0.523,-0.200,-0.956,13.588,-116.901,-21.588,429262
-0.524,-0.188,-0.953,12.275,-116.000,-20.702,433283
-0.520,-0.190,-0.946,11.221,-112.992,-19.863,437294
-0.516,-0.197,-0.934,10.947,-113.130,-19.405,441305
-0.509,-0.185,-0.929,9.679,-112.244,-20.580,445316
-0.536,-0.191,-0.913,10.092,-110.534,-19.634,449327
-0.546,-0.182,-0.907,10.855,-109.023,-18.519,453345
-0.537,-0.163,-0.891,11.924,-107.725,-18.733,457356
-0.547,-0.160,-0.893,13.435,-107.557,-19.099,461367
-0.556,-0.156,-0.879,15.130,-107.328,-19.176,465378
-0.569,-0.157,-0.883,16.489,-108.092,-18.229,469389
-0.579,-0.159,-0.875,17.328,-106.779,-18.000,473401
-0.575,-0.172,-0.878,18.000,-107.634,-16.885,477411
-0.553,-0.178,-0.877,17.832,-106.641,-18.290,481422
-0.547,-0.184,-0.870,17.496,-104.962,-19.740,485433
-0.544,-0.189,-0.864,17.008,-105.084,-21.176,489444
-0.549,-0.199,-0.859,16.092,-104.779,-22.015,493455
-0.552,-0.208,-0.854,15.053,-104.718,-21.542,497467
-0.549,-0.218,-0.843,13.634,-103.725,-20.092,501477
-0.550,-0.216,-0.843,13.481,-103.511,-18.779,505488
-0.544,-0.227,-0.829,13.038,-103.679,-17.817,509499
-0.529,-0.224,-0.823,12.198,-105.252,-18.092,513510
-0.522,-0.215,-0.821,11.878,-107.145,-18.870,517521
-0.532,-0.209,-0.820,11.802,-108.794,-20.275,521532
-0.537,-0.214,-0.818,11.664,-110.947,-21.267,525543
-0.568,-0.224,-0.820,11.359,-111.863,-22.397,529554
-0.581,-0.230,-0.825,11.328,-112.977,-23.038,533569
-0.613,-0.243,-0.821,10.336,-112.779,-23.313,537580
-0.628,-0.247,-0.808,10.061,-112.885,-23.710,541591
-0.637,-0.250,-0.823,10.321,-112.015,-24.290,545603
-0.646,-0.240,-0.820,10.534,-110.779,-24.336,549614
-0.656,-0.236,-0.807,10.733,-110.595,-24.427,553635
-0.665,-0.229,-0.809,11.405,-109.847,-24.275,557646
-0.672,-0.230,-0.798,11.954,-110.641,-23.435,561657
-0.663,-0.223,-0.801,11.939,-109.924,-24.122,565668
-0.698,-0.227,-0.785,12.290,-108.458,-23.588,569679
-0.700,-0.241,-0.783,12.672,-106.015,-23.115,573699
-0.709,-0.240,-0.772,12.916,-105.191,-22.794,577710
-0.736,-0.252,-0.773,13.420,-105.832,-21.130,581721
-0.703,-0.256,-0.769,12.397,-102.351,-22.046,585732
-0.728,-0.276,-0.773,11.710,-100.198,-18.519,589743
-0.701,-0.277,-0.758,10.092,-100.366,-17.679,593753
-0.694,-0.274,-0.748,9.267,-97.817,-19.176,597764
-0.690,-0.266,-0.727,9.145,-96.794,-19.145,601775
-0.704,-0.265,-0.720,8.885,-96.550,-18.275,605786
-0.702,-0.263,-0.712,8.427,-96.260,-17.344,609797
-0.697,-0.264,-0.699,7.969,-96.076,-16.840,613808
-0.680,-0.260,-0.684,7.985,-94.947,-16.977,617818
-0.690,-0.257,-0.689,8.840,-93.847,-17.252,621829
-0.702,-0.260,-0.683,8.672,-95.008,-17.481,625840
-0.711,-0.261,-0.677,8.519,-96.275,-18.031,629851
-0.710,-0.257,-0.669,8.458,-95.634,-18.962,633872
-0.727,-0.265,-0.656,8.229,-95.466,-19.542,637883
-0.739,-0.275,-0.649,7.450,-95.557,-19.008,641894
-0.729,-0.265,-0.652,7.008,-96.550,-18.672,645906
-0.716,-0.267,-0.637,7.191,-97.466,-18.641,649918
-0.703,-0.260,-0.631,8.336,-98.550,-18.519,653929
-0.710,-0.257,-0.616,9.542,-99.328,-18.076,657940
-0.722,-0.253,-0.606,10.687,-99.466,-18.351,661951
-0.747,-0.259,-0.601,11.786,-98.977,-18.214,665962
-0.767,-0.257,-0.602,12.641,-97.878,-17.725,669973
-0.791,-0.257,-0.586,13.145,-97.496,-17.542,673984
-0.803,-0.259,-0.596,14.305,-95.649,-16.916,677996
-0.824,-0.257,-0.593,14.733,-92.137,-15.847,682006
-0.809,-0.249,-0.599,14.183,-92.336,-15.405,686017
-0.800,-0.241,-0.597,13.969,-92.153,-14.855,690028
-0.799,-0.253,-0.583,13.130,-92.061,-13.725,694039
-0.787,-0.265,-0.595,12.198,-89.618,-12.580,698050
-0.793,-0.274,-0.600,10.550,-91.618,-11.267,702061
-0.779,-0.273,-0.566,10.153,-91.481,-9.481,706072
-0.757,-0.271,-0.569,9.237,-92.580,-8.382,710083
-0.758,-0.266,-0.549,10.076,-93.405,-6.656,714094
-0.748,-0.273,-0.552,10.947,-92.916,-5.099,718106
-0.741,-0.267,-0.552,12.260,-94.107,-3.344,722117
-0.740,-0.282,-0.542,12.504,-94.855,-1.710,726128
-0.733,-0.290,-0.528,14.244,-96.473,-0.061,730139
-0.733,-0.299,-0.515,15.740,-97.252,0.611,734150
-0.727,-0.302,-0.520,16.763,-96.031,0.748,738161
-0.743,-0.304,-0.518,18.458,-96.015,0.718,742173
-0.761,-0.312,-0.515,18.824,-94.809,0.214,746184
-0.773,-0.319,-0.520,19.191,-93.603,-0.550,750196
-0.793,-0.315,-0.511,19.969,-92.244,-1.099,754207
-0.802,-0.320,-0.511,19.756,-92.092,-1.603,758220
-0.807,-0.327,-0.518,18.107,-90.641,-2.198,762231
-0.802,-0.342,-0.522,16.015,-89.115,-2.565,766243
-0.803,-0.336,-0.503,14.015,-87.130,-3.115,770254
-0.815,-0.344,-0.505,12.061,-84.550,-4.595,774265
-0.841,-0.343,-0.497,9.634,-80.977,-5.939,778277
-0.869,-0.342,-0.495,7.710,-76.550,-7.237,782288
-0.900,-0.335,-0.505,5.374,-71.557,-8.244,786300
-0.918,-0.335,-0.500,3.771,-66.901,-8.962,790310
-0.916,-0.332,-0.484,2.015,-63.084,-9.847,794321
-0.908,-0.328,-0.479,0.855,-60.061,-10.840,798333
-0.906,-0.320,-0.471,0.565,-56.718,-12.046,802345
-0.916,-0.310,-0.470,0.504,-53.557,-12.962,806355
-0.930,-0.317,-0.468,-0.046,-49.511,-12.855,810366
-0.943,-0.304,-0.454,-0.168,-45.740,-12.656,814377
-0.943,-0.304,-0.453,0.153,-42.748,-12.107,818388
-0.931,-0.304,-0.458,0.321,-40.092,-11.328,822400
-0.920,-0.297,-0.450,0.366,-38.672,-10.397,826411
-0.915,-0.306,-0.433,0.656,-37.710,-9.405,830422
-0.913,-0.309,-0.445,0.962,-36.763,-8.321,834434
-0.905,-0.303,-0.437,1.496,-35.252,-7.389,838444
-0.926,-0.305,-0.428,2.626,-33.542,-6.321,842456
-0.946,-0.297,-0.432,4.290,-31.176,-5.298,846466
-0.943,-0.307,-0.431,5.466,-28.672,-3.832,850477
-0.930,-0.299,-0.408,6.275,-27.099,-1.939,854488
-0.908,-0.293,-0.415,7.863,-24.947,-0.504,858499
-0.902,-0.307,-0.408,8.748,-22.641,-0.076,862510
-0.895,-0.310,-0.421,9.557,-20.626,0.947,866521
-0.889,-0.327,-0.423,10.519,-19.740,1.817,870532
-0.851,-0.323,-0.420,10.931,-19.756,2.779,874543
-0.828,-0.333,-0.412,11.634,-20.092,3.176,878551
-0.813,-0.334,-0.405,13.252,-20.534,3.069,882562
-0.810,-0.345,-0.408,14.092,-21.267,2.397,886573
-0.798,-0.347,-0.412,14.916,-22.489,1.405,890585
-0.805,-0.362,-0.398,13.924,-22.458,1.435,894596
-0.797,-0.363,-0.408,14.183,-22.427,1.282,898607
-0.795,-0.361,-0.396,13.802,-22.550,0.885,902618
-0.792,-0.347,-0.386,12.992,-22.840,-0.260,906629
-0.796,-0.343,-0.389,11.176,-23.176,-1.130,910641
-0.784,-0.338,-0.380,8.901,-24.198,-1.924,914652
-0.777,-0.332,-0.392,6.763,-23.817,-3.313,918663
-0.804,-0.333,-0.386,4.656,-21.313,-4.382,922684
-0.847,-0.344,-0.388,2.962,-20.122,-3.802,926695
-0.862,-0.351,-0.380,1.023,-19.313,-4.000,930706
-0.856,-0.335,-0.385,-0.840,-17.435,-6.168,934717
-0.845,-0.327,-0.374,-1.954,-14.931,-7.939,938728
-0.844,-0.309,-0.364,-2.580,-12.626,-8.916,942743
-0.851,-0.311,-0.369,-3.069,-10.244,-9.023,946754
-0.866,-0.310,-0.370,-2.809,-8.061,-9.420,950766
-0.885,-0.310,-0.368,-2.733,-5.466,-9.603,954777
-0.902,-0.320,-0.374,-2.153,-2.214,-9.634,958787
-0.919,-0.317,-0.377,-1.282,0.809,-9.695,962799
-0.922,-0.318,-0.382,0.305,4.107,-9.893,966810
-0.935,-0.310,-0.377,1.603,7.252,-10.427,970821
-0.938,-0.304,-0.390,3.420,10.458,-10.885,974832
-0.934,-0.305,-0.388,4.733,13.557,-10.824,978843
-0.926,-0.303,-0.387,5.450,15.985,-9.924,982853
-0.906,-0.316,-0.394,5.237,17.527,-8.260,986865
-0.882,-0.334,-0.389,4.229,17.969,-6.321,990876
-0.853,-0.337,-0.389,3.084,17.634,-4.840,994887
-0.831,-0.345,-0.384,2.550,16.809,-4.656,998899
-0.842,-0.363,-0.393,0.962,16.015,-3.893,1002908
-0.843,-0.365,-0.404,-0.977,14.947,-2.550,1006919
-0.841,-0.367,-0.391,-3.527,12.748,-1.344,1010930
-0.815,-0.357,-0.383,-6.611,9.679,-0.519,1014941
-0.797,-0.351,-0.384,-9.023,6.275,-0.702,1018952
-0.800,-0.348,-0.385,-11.298,2.550,-0.885,1022971
-0.802,-0.341,-0.368,-12.885,-0.122,-1.618,1026982
-0.822,-0.339,-0.372,-14.031,-1.908,-2.611,1030993
-0.836,-0.332,-0.368,-14.290,-3.038,-3.511,1035004
-0.872,-0.332,-0.365,-14.092,-3.130,-3.939,1039015
-0.869,-0.323,-0.353,-13.725,-2.336,-4.244,1043036
-0.868,-0.312,-0.354,-12.626,-0.794,-4.580,1047047
-0.877,-0.303,-0.345,-11.115,1.145,-4.626,1051059
-0.885,-0.304,-0.349,-9.374,3.588,-4.840,1055069
-0.902,-0.302,-0.354,-8.015,6.397,-4.855,1059080
-0.906,-0.311,-0.358,-6.977,8.870,-4.427,1063092
-0.894,-0.315,-0.352,-5.924,10.947,-4.015,1067102
-0.883,-0.313,-0.351,-4.947,13.267,-3.908,1071113
-0.868,-0.310,-0.353,-4.382,14.977,-4.061,1075124
-0.872,-0.323,-0.354,-3.817,16.519,-4.000,1079135
-0.863,-0.327,-0.352,-3.649,17.618,-4.092,1083145
-0.850,-0.329,-0.353,-3.557,17.527,-4.153,1087157
-0.843,-0.332,-0.357,-3.405,17.588,-4.015,1091167
-0.843,-0.334,-0.356,-3.573,16.977,-4.458,1095178
-0.843,-0.339,-0.361,-3.298,16.977,-4.916,1099189
-0.847,-0.333,-0.364,-3.313,16.901,-4.992,1103210
-0.850,-0.341,-0.368,-4.092,15.603,-4.458,1107221
-0.823,-0.343,-0.366,-5.557,13.282,-3.832,1111232
-0.802,-0.342,-0.356,-6.748,10.931,-3.527,1115243
-0.807,-0.348,-0.365,-8.031,8.931,-3.908,1119254
-0.815,-0.358,-0.373,-9.542,7.221,-4.305,1123275
-0.825,-0.353,-0.366,-10.748,6.046,-4.427,1127287
-0.847,-0.351,-0.366,-11.267,5.603,-4.916,1131298
-0.861,-0.338,-0.355,-10.947,5.802,-5.466,1135309
-0.866,-0.328,-0.358,-10.260,5.725,-5.985,1139321
-0.877,-0.328,-0.359,-8.687,5.863,-6.473,1143338
-0.880,-0.317,-0.357,-7.298,6.290,-6.809,1147349
-0.882,-0.316,-0.362,-5.771,7.115,-6.794,1151360
-0.883,-0.318,-0.359,-4.244,7.832,-6.672,1155371
-0.891,-0.314,-0.363,-2.855,9.099,-6.611,1159382
-0.897,-0.327,-0.354,-1.542,9.817,-6.366,1163394
-0.898,-0.318,-0.366,-0.824,10.366,-6.214,1167405
-0.905,-0.328,-0.367,-0.198,10.916,-6.000,1171417
-0.900,-0.332,-0.370,0.229,12.107,-5.679,1175427
-0.897,-0.329,-0.375,0.748,12.992,-5.511,1179438
-0.898,-0.334,-0.373,1.069,13.954,-5.206,1183449
-0.898,-0.348,-0.378,1.389,14.840,-4.733,1187460
-0.895,-0.348,-0.386,1.450,15.206,-3.985,1191471
-0.886,-0.349,-0.398,1.481,15.053,-3.466,1195482
-0.872,-0.359,-0.391,0.885,14.901,-2.870,1199493
-0.868,-0.363,-0.396,0.214,14.687,-2.748,1203504
-0.859,-0.369,-0.409,-0.443,14.687,-2.870,1207516
-0.863,-0.369,-0.402,-1.374,14.489,-2.611,1211527
-0.869,-0.370,-0.405,-1.924,14.153,-2.870,1215538
-0.861,-0.373,-0.413,-2.763,13.893,-2.947,1219549
-0.863,-0.373,-0.415,-3.756,13.969,-2.977,1223558
-0.863,-0.376,-0.416,-4.275,14.183,-3.298,1227569
-0.864,-0.368,-0.419,-4.718,15.206,-3.679,1231580
-0.869,-0.365,-0.421,-4.794,16.656,-4.336,1235592
-0.872,-0.365,-0.426,-5.053,18.565,-4.550,1239603
-0.879,-0.365,-0.424,-4.855,20.321,-4.718,1243622
-0.870,-0.362,-0.429,-4.779,21.924,-5.099,1247633
-0.868,-0.359,-0.431,-4.947,22.824,-5.786,1251644
-0.862,-0.363,-0.429,-5.023,23.939,-6.534,1255656
-0.865,-0.363,-0.452,-4.672,24.687,-7.267,1259667
-0.868,-0.364,-0.444,-4.641,25.374,-7.542,1263688
-0.858,-0.352,-0.442,-4.809,26.366,-7.939,1267699
-0.854,-0.356,-0.436,-4.718,26.992,-8.382,1271711
-0.859,-0.361,-0.443,-5.023,27.878,-8.748,1275722
-0.846,-0.365,-0.439,-6.183,29.695,-9.679,1279733
-0.848,-0.376,-0.452,-7.664,31.313,-10.351,1283745
-0.848,-0.386,-0.457,-9.542,29.328,-10.595,1287755
-0.828,-0.390,-0.465,-11.817,31.679,-12.382,1291766
-0.826,-0.403,-0.468,-13.557,32.687,-12.748,1295777
-0.830,-0.401,-0.469,-15.588,29.908,-12.595,1299788
-0.820,-0.400,-0.475,-17.954,30.534,-13.863,1303801
-0.823,-0.404,-0.488,-19.924,30.885,-14.580,1307812
-0.823,-0.399,-0.480,-22.214,31.496,-14.672,1311822
-0.838,-0.394,-0.468,-23.893,31.939,-14.519,1315833
-0.852,-0.384,-0.467,-24.931,31.878,-14.550,1319844
-0.843,-0.384,-0.474,-25.527,32.565,-14.397,1323865
-0.842,-0.378,-0.474,-26.000,34.443,-13.939,1327876
-0.847,-0.364,-0.471,-25.893,35.527,-13.466,1331887
-0.833,-0.366,-0.462,-25.527,35.939,-12.855,1335898
-0.827,-0.357,-0.466,-25.038,37.359,-11.771,1339918
-0.823,-0.349,-0.469,-23.740,36.519,-11.084,1343929
-0.818,-0.357,-0.458,-22.992,36.351,-10.748,1347940
-0.803,-0.352,-0.466,-21.664,36.366,-9.786,1351951
-0.807,-0.342,-0.443,-20.336,35.649,-9.023,1355962
-0.815,-0.344,-0.444,-19.374,35.893,-8.443,1359973
-0.810,-0.338,-0.457,-18.137,34.870,-7.740,1363984
-0.823,-0.332,-0.449,-17.267,34.702,-7.389,1367996
-0.814,-0.333,-0.446,-16.366,34.687,-6.840,1372006
-0.821,-0.336,-0.453,-15.527,34.580,-6.656,1376017
-0.818,-0.337,-0.442,-14.824,34.962,-6.122,1380028
-0.824,-0.338,-0.446,-13.786,35.069,-5.664,1384039
-0.823,-0.335,-0.448,-13.130,36.153,-5.710,1388050
-0.832,-0.339,-0.455,-12.656,36.947,-5.221,1392061
-0.831,-0.338,-0.466,-12.183,38.443,-5.237,1396072
-0.839,-0.345,-0.476,-12.458,40.031,-4.550,1400083
-0.816,-0.346,-0.474,-12.641,40.947,-3.588,1404094
-0.798,-0.350,-0.479,-13.450,40.901,-2.687,1408106
-0.777,-0.353,-0.478,-14.534,40.076,-2.244,1412117
-0.760,-0.364,-0.479,-15.786,38.458,-2.214,1416128
-0.753,-0.370,-0.488,-17.756,36.458,-2.168,1420139
-0.755,-0.375,-0.482,-19.771,33.573,-2.397,1424150
-0.753,-0.378,-0.483,-21.511,31.389,-2.885,1428161
-0.776,-0.375,-0.496,-23.649,30.198,-3.817,1432173
-0.783,-0.365,-0.497,-24.947,28.870,-4.565,1436184
-0.805,-0.361,-0.492,-26.015,28.366,-5.237,1440196
-0.813,-0.358,-0.500,-27.191,28.748,-5.954,1444207
-0.830,-0.356,-0.504,-27.206,29.496,-6.122,1448220
-0.836,-0.353,-0.510,-27.008,29.939,-6.458,1452231
-0.840,-0.343,-0.515,-26.687,30.489,-6.992,1456243
-0.849,-0.344,-0.517,-26.275,31.542,-7.237,1460254
-0.857,-0.341,-0.517,-25.893,33.115,-7.435,1464265
-0.878,-0.340,-0.527,-25.160,35.298,-7.603,1468277
-0.882,-0.335,-0.531,-24.412,37.878,-7.130,1472288
-0.896,-0.342,-0.543,-23.893,41.115,-6.595,1476300
-0.892,-0.336,-0.545,-23.176,44.076,-5.237,1480310
-0.885,-0.343,-0.552,-23.038,46.947,-3.969,1484321
-0.865,-0.351,-0.544,-23.710,48.458,-2.046,1488333
-0.825,-0.353,-0.550,-23.954,48.153,-0.366,1492345
-0.790,-0.363,-0.561,-25.038,47.359,0.870,1496355
-0.772,-0.372,-0.564,-25.969,45.710,1.695,1500366
-0.763,-0.384,-0.586,-26.824,42.870,2.443,1504377
-0.763,-0.381,-0.583,-27.420,40.885,2.534,1508388
-0.777,-0.379,-0.596,-28.000,38.458,2.656,1512400
-0.779,-0.370,-0.595,-28.229,36.137,2.504,1516411
-0.792,-0.371,-0.593,-29.053,35.221,2.519,1520422
-0.805,-0.366,-0.592,-28.901,34.626,2.260,1524434
-0.819,-0.354,-0.596,-29.038,35.359,2.473,1528444
-0.830,-0.353,-0.597,-29.374,36.122,2.504,1532456
-0.840,-0.342,-0.607,-29.573,38.275,2.321,1536466
-0.844,-0.339,-0.608,-29.313,40.916,2.550,1540477
-0.855,-0.337,-0.604,-29.802,44.412,2.977,1544488
-0.867,-0.327,-0.595,-28.962,48.275,3.237,1548499
-0.869,-0.317,-0.610,-28.275,52.870,3.145,1552510
-0.879,-0.325,-0.613,-27.450,57.863,3.328,1556521
-0.877,-0.318,-0.623,-27.435,62.580,4.198,1560532
-0.859,-0.331,-0.612,-27.847,67.328,5.328,1564543
-0.821,-0.339,-0.614,-28.305,71.130,6.427,1568551
-0.787,-0.350,-0.631,-29.084,73.649,6.824,1572562
-0.760,-0.355,-0.631,-30.168,74.443,6.748,1576573
-0.727,-0.367,-0.628,-32.031,73.969,6.565,1580585
-0.702,-0.368,-0.642,-33.160,72.275,5.771,1584596
-0.680,-0.358,-0.646,-33.832,69.847,5.130,1588607
-0.677,-0.351,-0.645,-35.023,66.366,4.504,1592618
-0.671,-0.351,-0.655,-35.588,63.221,3.679,1596629
-0.683,-0.341,-0.656,-35.527,59.878,3.115,1600641
-0.688,-0.333,-0.649,-36.031,56.412,2.565,1604652
-0.693,-0.327,-0.652,-35.893,53.710,1.985,1608663
-0.703,-0.312,-0.654,-35.221,51.298,1.389,1612684
-0.718,-0.313,-0.654,-34.534,49.954,1.389,1616695
-0.733,-0.308,-0.653,-33.649,49.252,1.450,1620706
-0.743,-0.295,-0.650,-32.794,49.191,1.298,1624717
-0.748,-0.297,-0.641,-31.832,49.450,1.664,1628728
-0.753,-0.292,-0.645,-30.656,50.382,1.878,1632743
-0.748,-0.278,-0.651,-29.313,51.359,2.000,1636754
-0.755,-0.285,-0.650,-27.725,52.489,2.336,1640766
-0.750,-0.276,-0.645,-25.802,54.260,2.885,1644777
-0.745,-0.265,-0.643,-24.061,55.191,3.267,1648787
-0.746,-0.268,-0.647,-22.198,56.870,4.061,1652799
-0.749,-0.277,-0.643,-20.153,58.733,4.397,1656810
-0.752,-0.267,-0.653,-17.695,60.397,4.870,1660821
-0.759,-0.265,-0.666,-15.405,62.427,5.298,1664832
-0.759,-0.256,-0.669,-12.565,64.458,5.802,1668843
-0.763,-0.254,-0.680,-10.275,66.504,6.412,1672853
-0.755,-0.252,-0.683,-7.282,68.260,6.977,1676865
-0.745,-0.250,-0.689,-4.656,69.985,7.740,1680876
-0.751,-0.250,-0.701,-2.000,71.817,8.260,1684887
-0.759,-0.256,-0.709,0.351,73.649,9.160,1688899
-0.760,-0.252,-0.715,2.702,76.122,10.122,1692908
-0.768,-0.258,-0.730,5.069,78.809,11.145,1696919
-0.781,-0.254,-0.736,7.679,82.382,12.366,1700930
-0.792,-0.255,-0.743,10.427,86.901,13.481,1704942
-0.807,-0.245,-0.755,13.298,92.443,15.099,1708953
-0.809,-0.250,-0.763,15.969,98.214,16.855,1712972
-0.817,-0.256,-0.791,17.954,103.405,18.550,1716983
-0.802,-0.271,-0.811,18.626,107.664,19.893,1720994
-0.772,-0.282,-0.816,18.473,110.611,21.527,1725005
-0.713,-0.301,-0.825,18.000,112.229,22.748,1729016
-0.674,-0.306,-0.817,17.282,112.977,23.252,1733037
-0.662,-0.326,-0.825,16.244,112.947,23.298,1737048
-0.644,-0.324,-0.826,14.718,112.565,23.298,1741060
-0.633,-0.335,-0.825,12.748,111.603,23.786,1745071
-0.614,-0.331,-0.818,10.672,110.733,23.725,1749082
-0.594,-0.335,-0.821,8.443,109.985,23.649,1753094
-0.579,-0.327,-0.811,7.160,109.344,23.069,1757105
-0.579,-0.327,-0.816,5.649,108.855,22.382,1761117
-0.575,-0.335,-0.814,4.641,108.534,21.267,1765128
-0.568,-0.330,-0.810,3.786,108.321,20.550,1769139
-0.576,-0.323,-0.813,3.038,108.458,19.359,1773149
-0.580,-0.315,-0.814,2.473,109.038,17.817,1777160
-0.582,-0.306,-0.813,2.076,109.908,15.603,1781171
-0.590,-0.303,-0.809,1.878,112.092,13.374,1785183
-0.614,-0.289,-0.816,1.740,114.840,11.481,1789194
-0.625,-0.288,-0.811,1.359,118.641,10.275,1793213
-0.634,-0.292,-0.800,1.450,123.313,9.756,1797224
-0.635,-0.280,-0.802,2.153,128.397,8.794,1801235
-0.626,-0.275,-0.807,3.267,133.939,9.313,1805246
-0.616,-0.280,-0.813,3.786,139.740,10.595,1809257
-0.614,-0.266,-0.820,5.038,145.069,11.542,1813276
-0.615,-0.269,-0.834,5.924,149.511,11.725,1817287
-0.609,-0.275,-0.846,7.115,153.588,13.267,1821298
-0.591,-0.286,-0.854,7.786,156.137,14.931,1825309
-0.548,-0.302,-0.865,8.046,157.008,17.756,1829320
-0.497,-0.309,-0.874,7.435,156.321,19.817,1833338
-0.457,-0.330,-0.882,6.229,153.939,21.099,1837349
-0.429,-0.335,-0.900,4.504,150.412,21.603,1841360
-0.417,-0.343,-0.895,2.733,145.756,21.786,1845371
-0.395,-0.346,-0.910,0.733,140.977,22.260,1849382
-0.383,-0.354,-0.915,-1.771,135.511,22.885,1853393
-0.366,-0.341,-0.925,-4.321,130.122,22.656,1857405
-0.368,-0.338,-0.923,-6.855,124.305,21.954,1861415
-0.356,-0.342,-0.925,-8.840,117.573,21.618,1865426
-0.355,-0.328,-0.928,-11.160,112.565,20.626,1869437
-0.356,-0.327,-0.932,-12.840,108.443,20.229,1873449
-0.363,-0.325,-0.939,-14.687,103.817,20.458,1877460
-0.372,-0.321,-0.940,-16.656,100.443,19.802,1881472
-0.378,-0.320,-0.937,-18.458,98.015,18.550,1885482
-0.382,-0.318,-0.945,-19.710,96.534,17.328,1889493
-0.395,-0.319,-0.947,-20.702,95.603,16.366,1893503
-0.409,-0.310,-0.954,-21.588,95.679,15.206,1897514
-0.421,-0.311,-0.952,-21.939,96.504,14.473,1901525
-0.420,-0.306,-0.951,-22.397,97.450,13.985,1905536
-0.421,-0.293,-0.947,-22.397,99.328,13.588,1909547
-0.417,-0.287,-0.958,-22.122,101.817,13.511,1913557
-0.414,-0.282,-0.962,-22.046,104.473,13.191,1917569
-0.417,-0.276,-0.961,-21.969,107.756,12.870,1921580
-0.422,-0.280,-0.961,-21.847,111.344,12.076,1925592
-0.425,-0.283,-0.962,-22.015,115.466,11.817,1929603
-0.421,-0.276,-0.962,-21.603,119.664,11.328,1933622
-0.418,-0.282,-0.969,-21.618,123.466,10.229,1937633
-0.417,-0.281,-0.979,-21.359,127.557,9.496,1941644
-0.400,-0.276,-0.967,-21.069,130.992,9.053,1945656
-0.393,-0.280,-0.977,-21.008,134.229,8.412,1949667
-0.375,-0.273,-0.989,-20.504,136.382,7.969,1953688
-0.353,-0.272,-0.998,-20.351,138.198,7.588,1957699
-0.345,-0.270,-0.994,-20.763,139.221,7.389,1961711
-0.332,-0.271,-1.017,-20.443,139.084,7.771,1965722
-0.319,-0.275,-1.016,-20.397,138.931,8.382,1969733
-0.293,-0.290,-1.019,-20.687,137.954,9.099,1973745
-0.274,-0.290,-1.014,-20.534,136.351,9.832,1977755
-0.264,-0.287,-1.023,-20.977,134.092,10.290,1981766
-0.255,-0.285,-1.039,-21.450,131.069,11.008,1985777
-0.236,-0.277,-1.029,-21.908,128.168,11.328,1989788
-0.232,-0.269,-1.041,-22.718,125.710,11.710,1993801
-0.231,-0.255,-1.045,-23.435,124.046,12.260,1997812
-0.234,-0.264,-1.045,-24.046,122.153,12.748,2001823
