acc_x,acc_y,acc_z,gyro_x,gyro_y,gyro_z,time
0.296,-0.142,-1.100,-2.260,-1.053,-1.603,0
0.297,-0.147,-1.112,-2.107,-1.160,-1.359,4049
0.301,-0.144,-1.102,-2.168,-1.359,-1.344,8062
0.299,-0.147,-1.097,-2.214,-0.687,-1.145,12074
0.295,-0.144,-1.102,-2.107,-1.008,-1.038,16084
0.293,-0.146,-1.106,-2.183,-1.099,-0.901,20095
0.298,-0.150,-1.094,-2.351,-0.687,-0.855,24107
0.296,-0.147,-1.100,-2.458,0.397,-0.855,28117
0.297,-0.149,-1.102,-2.702,1.038,-0.779,32128
0.301,-0.147,-1.112,-2.779,1.374,-0.641,36139
0.302,-0.143,-1.102,-2.580,1.145,-0.809,40151
0.308,-0.146,-1.113,-2.748,1.145,-0.718,44162
0.310,-0.143,-1.112,-2.702,1.115,-0.840,48170
0.315,-0.150,-1.105,-2.779,0.779,-0.641,52181
0.313,-0.147,-1.111,-2.916,0.214,-0.458,56193
0.320,-0.146,-1.113,-2.855,-0.183,-0.489,60204
0.315,-0.148,-1.114,-2.809,-0.656,-0.351,64215
0.316,-0.149,-1.110,-2.870,-1.038,-0.214,68227
0.313,-0.148,-1.114,-2.901,-1.298,-0.137,72238
0.316,-0.144,-1.114,-2.824,-0.962,-0.061,76250
0.311,-0.141,-1.119,-2.641,-1.298,0.061,80261
0.311,-0.150,-1.100,-2.641,-1.313,0.168,84272
0.302,-0.149,-1.118,-2.427,-1.130,-0.153,88284
0.305,-0.147,-1.115,-2.046,-1.038,-0.031,92295
0.297,-0.145,-1.101,-1.786,-0.275,-0.122,96306
0.300,-0.144,-1.117,-1.710,0.305,-0.260,100317
0.305,-0.139,-1.108,-1.832,1.466,-0.305,104328
0.306,-0.146,-1.105,-2.061,2.366,-0.427,108340
0.308,-0.147,-1.118,-2.275,2.763,-0.473,112351
0.304,-0.150,-1.102,-2.550,3.405,-0.550,116362
0.315,-0.157,-1.106,-2.748,5.191,-0.443,120373
0.310,-0.151,-1.106,-3.115,5.588,-0.519,124384
0.316,-0.153,-1.116,-3.359,4.321,-0.733,128395
0.320,-0.152,-1.108,-3.908,4.412,-0.840,132406
0.320,-0.153,-1.113,-4.076,2.321,-0.992,136417
0.320,-0.150,-1.113,-4.534,2.855,-1.008,140428
0.325,-0.153,-1.110,-4.763,1.863,-1.160,144439
0.319,-0.152,-1.117,-5.053,-0.305,-1.053,148449
0.318,-0.154,-1.103,-5.191,-0.275,-1.069,152460
0.327,-0.145,-1.096,-5.206,-0.366,-1.160,156471
0.323,-0.137,-1.117,-4.992,-0.794,-1.130,160482
0.314,-0.140,-1.105,-4.733,-1.176,-1.069,164493
0.311,-0.133,-1.104,-4.550,-1.160,-1.359,168504
0.314,-0.129,-1.107,-4.458,-1.939,-1.420,172515
0.312,-0.132,-1.105,-4.229,-1.084,-1.053,176526
0.308,-0.138,-1.108,-3.817,-1.634,-0.916,180537
0.308,-0.135,-1.101,-3.389,-1.038,-1.053,184548
0.302,-0.134,-1.102,-3.069,-0.733,-0.901,188559
0.312,-0.136,-1.103,-2.947,-0.153,-0.794,192569
0.311,-0.135,-1.098,-2.382,1.573,-0.458,196580
0.306,-0.140,-1.099,-2.565,2.275,-0.611,200591
0.312,-0.139,-1.099,-2.336,2.366,-0.626,204602
0.311,-0.145,-1.104,-2.305,2.947,-0.489,208613
0.317,-0.140,-1.104,-2.412,3.527,-0.611,212624
0.318,-0.140,-1.107,-2.519,3.878,-0.473,216635
0.313,-0.145,-1.107,-2.977,2.794,-0.794,220646
0.313,-0.147,-1.108,-3.160,2.260,-0.611,224657
0.316,-0.143,-1.104,-3.389,2.061,-0.534,228668
0.321,-0.149,-1.113,-3.557,1.847,-0.901,232688
0.329,-0.143,-1.116,-3.802,1.603,-0.977,236699
0.325,-0.137,-1.116,-3.954,1.405,-1.038,240710
0.322,-0.139,-1.110,-3.863,1.099,-1.069,244722
0.318,-0.139,-1.113,-3.817,1.191,-1.191,248733
0.312,-0.135,-1.115,-3.618,1.191,-1.191,252744
0.313,-0.134,-1.112,-3.740,1.099,-1.053,256755
0.315,-0.134,-1.113,-3.450,1.237,-1.237,260766
0.308,-0.130,-1.114,-3.252,1.115,-1.237,264777
0.300,-0.125,-1.114,-3.084,1.374,-1.191,268790
0.307,-0.130,-1.118,-2.656,2.458,-1.160,272801
0.304,-0.127,-1.118,-2.504,2.809,-1.130,276812
0.306,-0.125,-1.116,-2.244,3.649,-1.237,280823
0.304,-0.129,-1.111,-2.214,4.015,-1.282,284834
0.303,-0.130,-1.105,-1.756,4.351,-1.252,288845
0.307,-0.133,-1.106,-1.802,4.672,-1.115,292856
0.314,-0.135,-1.109,-1.939,4.672,-1.038,296867
0.318,-0.141,-1.104,-2.061,4.916,-0.931,300879
0.321,-0.139,-1.097,-2.351,5.466,-0.992,304890
0.318,-0.145,-1.110,-2.733,5.374,-0.656,308901
0.318,-0.148,-1.107,-2.947,5.359,-0.885,312914
0.319,-0.138,-1.110,-3.237,4.687,-1.130,316925
0.321,-0.141,-1.113,-3.328,2.748,-1.618,320936
0.324,-0.137,-1.114,-3.817,1.527,-2.000,324947
0.313,-0.140,-1.118,-3.985,0.473,-2.412,328958
0.314,-0.133,-1.107,-4.107,0.305,-2.366,332978
0.312,-0.131,-1.108,-4.489,0.290,-2.351,336990
0.312,-0.135,-1.118,-4.489,-0.076,-2.687,341001
0.306,-0.127,-1.121,-4.397,-1.176,-2.611,345012
0.312,-0.126,-1.106,-4.397,1.282,-2.290,349023
0.310,-0.130,-1.113,-4.397,0.611,-2.076,353044
0.307,-0.133,-1.125,-4.412,1.679,-1.756,357055
0.307,-0.131,-1.125,-4.061,1.252,-1.313,361066
0.308,-0.130,-1.119,-3.847,1.328,-1.115,365078
0.316,-0.130,-1.120,-3.466,0.947,-1.069,369089
0.312,-0.134,-1.119,-3.313,0.626,-0.779,373102
0.314,-0.127,-1.118,-3.038,0.260,-0.718,377113
0.305,-0.125,-1.118,-2.656,-1.710,-0.947,381124
0.299,-0.129,-1.110,-2.763,-1.405,-0.901,385135
0.312,-0.137,-1.104,-2.687,0.366,-0.504,389146
0.308,-0.136,-1.098,-2.519,0.916,-0.305,393158
0.314,-0.136,-1.112,-2.748,1.221,-0.382,397169
0.309,-0.128,-1.097,-2.809,1.237,-0.290,401180
0.313,-0.143,-1.112,-2.992,2.443,-0.198,405191
0.312,-0.140,-1.116,-3.252,4.076,0.366,409202
0.319,-0.147,-1.119,-3.435,3.099,0.137,413223
0.315,-0.151,-1.118,-3.924,1.420,-0.092,417234
0.311,-0.146,-1.111,-3.969,1.496,-0.107,421245
0.315,-0.150,-1.109,-4.305,1.481,-0.015,425256
0.327,-0.150,-1.120,-4.687,1.450,-0.244,429267
0.320,-0.154,-1.127,-4.962,1.450,-0.168,433288
0.318,-0.147,-1.119,-5.267,1.328,-0.168,437299
0.323,-0.153,-1.115,-5.176,1.542,-0.427,441310
0.317,-0.149,-1.116,-5.344,1.313,-0.550,445321
0.323,-0.147,-1.117,-5.389,1.603,-0.214,449332
0.316,-0.143,-1.113,-5.405,1.939,-0.473,453350
0.318,-0.143,-1.113,-5.450,1.985,-0.565,457361
0.322,-0.144,-1.110,-5.618,2.214,-0.672,461372
0.316,-0.145,-1.111,-5.191,2.870,-0.885,465384
0.316,-0.140,-1.107,-4.885,2.962,-0.779,469395
0.318,-0.138,-1.111,-4.534,3.405,-0.809,473406
0.308,-0.134,-1.104,-4.046,3.435,-0.794,477417
0.305,-0.133,-1.104,-3.679,3.298,-0.824,481428
0.313,-0.135,-1.113,-3.374,5.252,-0.550,485439
0.312,-0.140,-1.110,-2.977,6.321,-0.183,489450
0.314,-0.133,-1.107,-2.702,6.718,0.046,493461
0.326,-0.146,-1.112,-2.489,6.763,0.550,497473
0.340,-0.141,-1.101,-2.626,7.634,0.702,501484
0.358,-0.153,-1.090,-2.809,10.153,1.115,505496
0.352,-0.154,-1.107,-3.115,8.779,0.931,509507
0.355,-0.150,-1.112,-3.359,7.756,0.992,513517
0.364,-0.152,-1.112,-3.679,6.931,0.824,517528
0.364,-0.147,-1.124,-3.679,4.519,0.382,521539
0.367,-0.148,-1.106,-3.924,3.053,-0.107,525550
0.366,-0.147,-1.112,-3.649,-2.214,-0.977,529561
0.358,-0.149,-1.110,-3.527,-5.740,-1.802,533572
0.362,-0.144,-1.117,-3.115,-6.611,-2.382,537583
0.350,-0.139,-1.117,-2.626,-9.267,-2.870,541594
0.356,-0.143,-1.112,-2.290,-12.122,-3.710,545605
0.371,-0.134,-1.117,-2.275,-13.664,-4.687,549616
0.372,-0.145,-1.109,-2.168,-11.084,-4.962,553636
0.383,-0.145,-1.112,-1.664,-11.588,-5.786,557648
0.380,-0.147,-1.105,-1.893,-11.557,-6.809,561659
0.398,-0.152,-1.097,-2.092,-12.229,-7.542,565670
0.414,-0.151,-1.104,-2.046,-12.748,-8.565,569681
0.438,-0.148,-1.106,-1.985,-13.634,-9.786,573702
0.460,-0.155,-1.105,-2.321,-17.634,-11.786,577713
0.474,-0.155,-1.106,-2.641,-23.786,-13.618,581724
0.496,-0.154,-1.094,-3.069,-28.092,-14.656,585735
0.527,-0.143,-1.089,-2.718,-33.756,-16.122,589746
0.564,-0.153,-1.095,-3.176,-39.099,-17.267,593756
0.611,-0.175,-1.114,-5.450,-48.992,-16.901,597767
0.679,-0.173,-1.093,-6.809,-61.664,-16.489,601778
0.742,-0.199,-1.084,-9.115,-72.351,-15.527,605789
0.798,-0.231,-1.091,-12.244,-86.702,-13.130,609801
0.833,-0.263,-1.108,-17.206,-109.328,-10.916,613811
0.870,-0.279,-1.108,-23.298,-138.290,-9.053,617821
0.877,-0.288,-1.107,-29.145,-170.931,-7.420,621832
0.870,-0.319,-1.061,-36.382,-187.710,-2.412,625843
0.807,-0.315,-1.139,-41.634,-256.214,-2.489,629854
0.793,-0.304,-1.111,-43.573,-315.664,1.740,633874
0.697,-0.286,-1.031,-47.038,-343.344,6.870,637887
0.585,-0.250,-1.060,-47.176,-392.427,8.992,641897
0.457,-0.189,-1.057,-45.176,-447.298,11.359,645908
0.322,-0.125,-1.031,-43.160,-492.779,10.565,649920
0.173,-0.043,-1.005,-39.206,-500.275,3.527,653931
0.164,0.025,-0.926,-26.901,-500.275,36.321,657942
0.070,-0.029,-0.909,-25.496,-500.275,74.198,661953
-0.259,0.126,-0.907,-36.046,-500.275,47.053,665964
-0.335,0.367,-0.891,-67.908,-500.275,-5.954,669975
-0.380,0.411,-0.919,-112.901,-453.405,-86.198,673986
0.125,0.217,-1.528,-83.191,-422.794,-97.786,677998
0.148,-0.142,-0.537,55.130,-373.679,69.802,682009
0.082,0.231,-0.466,16.718,-234.046,47.893,686021
-0.860,0.301,-0.732,67.008,-265.695,-17.023,690032
-0.638,0.192,-0.979,42.855,-274.580,-128.092,694043
-0.181,-0.298,-0.595,56.031,-213.282,-112.244,698055
-0.544,-0.029,-0.751,59.664,-161.878,-166.198,702066
-0.446,-0.176,-0.776,102.015,-165.695,-192.626,706078
-0.120,-0.400,-0.330,129.084,-171.069,-65.618,710088
-0.601,-0.810,-0.632,155.374,-126.962,-58.931,714099
-0.221,-0.249,-0.571,147.863,-196.412,-62.656,718106
-0.154,-0.351,-0.541,152.382,-140.824,-40.168,722117
-0.540,-0.119,-0.856,66.153,-167.344,-143.084,726128
-0.143,-0.334,-0.750,75.802,-241.374,-105.985,730139
-0.271,-0.352,-0.687,74.870,-252.031,-64.000,734150
-0.374,-0.318,-0.716,77.496,-279.023,-65.985,738157
-0.293,-0.362,-0.688,79.740,-306.046,-51.634,742168
-0.482,-0.306,-0.769,81.527,-355.878,-77.756,746179
-0.448,-0.347,-0.780,85.969,-411.466,-73.634,750190
-0.569,-0.270,-0.693,72.137,-383.969,-102.718,754201
-0.586,-0.412,-0.692,76.916,-383.328,-102.779,758213
-0.626,-0.435,-0.626,81.557,-372.489,-85.450,762223
-0.713,-0.360,-0.840,73.618,-348.137,-74.046,766234
-0.882,-0.319,-0.864,58.458,-339.191,-83.008,770245
-0.982,-0.330,-0.822,46.427,-302.809,-86.519,774256
-1.223,-0.330,-0.673,26.473,-268.916,-100.061,778268
-1.161,-0.294,-0.984,23.084,-242.855,-112.840,782279
-1.229,-0.292,-0.955,23.878,-230.061,-107.893,786291
-1.189,-0.211,-1.013,15.771,-182.443,-108.153,790301
-1.236,-0.202,-1.103,30.000,-186.015,-94.321,794312
-1.232,-0.171,-1.031,48.962,-160.550,-77.832,798323
-1.287,-0.140,-1.083,51.359,-122.763,-74.015,802334
-1.234,-0.186,-1.143,55.603,-113.740,-66.992,806345
-1.196,-0.190,-1.204,60.076,-95.954,-58.870,810357
-1.187,-0.202,-1.174,51.817,-77.893,-68.992,814368
-1.116,-0.292,-1.019,61.282,-60.137,-43.084,818379
-0.989,-0.215,-1.206,56.885,-21.023,-13.634,822390
-1.033,-0.302,-1.139,57.924,-22.153,-19.191,826401
-0.937,-0.239,-1.342,55.435,-18.809,-11.511,830413
-0.915,-0.317,-1.105,53.496,-3.084,3.573,834424
-0.888,-0.348,-1.059,71.649,-11.038,15.679,838434
-0.861,-0.318,-1.113,68.824,-4.122,19.863,842445
-0.844,-0.373,-1.036,77.496,-1.618,30.107,846456
-0.638,-0.296,-1.298,38.626,34.656,13.481,850467
-0.813,-0.339,-1.262,30.214,-8.214,7.496,854478
-0.871,-0.246,-1.100,2.824,-6.153,-12.611,858489
-0.645,-0.465,-1.035,-2.992,-5.374,23.588,862501
-0.689,-0.416,-0.975,-11.802,4.977,35.191,866512
-0.760,-0.325,-1.035,-15.924,10.198,41.313,870523
-0.748,-0.289,-1.020,-27.985,-0.351,37.374,874534
-0.735,-0.270,-0.973,-36.336,0.275,33.069,878545
-0.743,-0.284,-0.969,-34.656,4.168,28.183,882556
-0.719,-0.294,-0.994,-28.534,27.191,24.351,886567
-0.707,-0.299,-0.986,-31.618,26.260,20.626,890579
-0.699,-0.312,-0.904,-30.840,35.267,21.496,894590
-0.673,-0.319,-0.898,-28.626,49.603,23.618,898602
-0.661,-0.308,-0.874,-23.573,60.702,25.802,902612
-0.637,-0.291,-0.867,-23.847,84.031,25.344,906623
-0.659,-0.300,-0.889,-25.145,94.443,24.290,910634
-0.656,-0.312,-0.903,-24.489,96.107,23.282,914645
-0.635,-0.333,-0.898,-24.641,107.771,25.817,918656
-0.663,-0.310,-0.876,-24.870,116.015,24.000,922677
-0.650,-0.311,-0.888,-24.489,118.626,20.427,926688
-0.640,-0.327,-0.884,-26.137,123.435,23.160,930699
-0.655,-0.323,-0.878,-27.603,127.725,25.740,934710
-0.671,-0.315,-0.881,-27.954,131.588,24.519,938722
-0.664,-0.323,-0.865,-28.092,142.641,23.588,942735
-0.658,-0.316,-0.861,-30.412,152.519,21.481,946746
-0.639,-0.313,-0.847,-31.863,163.084,19.313,950757
-0.615,-0.307,-0.848,-35.786,179.237,16.061,954768
-0.610,-0.301,-0.828,-38.809,195.557,12.565,958780
-0.608,-0.282,-0.850,-43.282,213.740,7.679,962791
-0.608,-0.264,-0.849,-47.969,225.389,2.779,966802
-0.616,-0.227,-0.865,-55.084,238.458,-3.985,970814
-0.659,-0.223,-0.848,-57.267,248.351,-8.519,974825
-0.638,-0.150,-0.895,-64.626,260.427,-22.427,978836
-0.598,-0.135,-0.852,-66.595,274.031,-30.427,982846
-0.625,-0.158,-0.838,-69.221,286.931,-41.191,986857
-0.511,-0.167,-0.791,-54.260,299.634,-36.290,990868
-0.571,-0.444,-0.333,-9.374,318.824,-12.107,994880
-0.498,-0.205,-0.792,-13.084,356.305,-23.832,998891
-0.454,-0.223,-0.781,-6.168,391.267,-38.626,1002902
-0.382,-0.390,-0.679,-9.466,389.160,-61.328,1006912
-0.198,-0.365,-0.726,20.015,419.206,-17.359,1010923
-0.289,-0.345,-0.740,33.573,435.725,-9.939,1014934
-0.174,-0.333,-0.738,52.748,453.160,7.008,1018945
-0.101,-0.343,-0.764,65.588,454.229,11.481,1022966
-0.085,-0.403,-0.868,64.443,454.550,2.931,1026977
-0.085,-0.423,-0.835,65.557,467.450,0.916,1030988
-0.284,-0.268,-0.875,-16.794,423.206,-84.748,1034999
0.272,-0.553,-0.840,-7.695,438.840,-54.305,1039010
0.043,-0.447,-1.007,-10.458,381.771,-6.672,1043031
0.053,-0.447,-0.959,-11.588,387.145,-4.137,1047042
0.100,-0.478,-0.907,-14.824,389.725,2.504,1051053
0.115,-0.485,-1.062,-18.031,336.076,0.901,1055064
0.186,-0.518,-0.991,-21.725,311.282,1.573,1059075
0.240,-0.535,-0.989,-26.595,292.473,2.947,1063087
0.299,-0.553,-0.973,-33.008,290.275,6.916,1067098
0.348,-0.567,-0.981,-41.237,280.779,9.573,1071109
0.417,-0.564,-0.962,-50.855,271.481,9.679,1075120
0.478,-0.571,-0.966,-59.496,264.565,17.145,1079131
0.479,-0.537,-0.967,-66.153,255.573,19.634,1083141
0.438,-0.495,-1.000,-71.267,234.092,19.756,1087152
0.381,-0.445,-1.030,-75.450,203.802,19.710,1091163
0.326,-0.396,-1.037,-78.290,175.344,17.878,1095175
0.289,-0.345,-1.020,-79.634,150.198,15.115,1099186
0.254,-0.300,-1.047,-79.267,123.115,11.282,1103206
0.238,-0.266,-1.038,-78.000,93.969,6.947,1107216
0.245,-0.246,-1.008,-74.916,78.489,10.061,1111227
0.206,-0.212,-0.981,-71.939,73.023,12.962,1115238
0.175,-0.192,-0.947,-68.305,79.053,11.710,1119249
0.209,-0.192,-0.941,-64.580,93.695,19.527,1123269
0.215,-0.176,-0.958,-61.221,111.069,28.031,1127280
0.218,-0.177,-0.966,-59.603,126.855,25.573,1131291
0.235,-0.179,-0.952,-59.282,147.756,8.061,1135302
0.316,-0.233,-0.900,-58.351,170.076,3.924,1139313
0.342,-0.233,-0.933,-59.099,187.023,-9.863,1143333
0.361,-0.249,-0.964,-58.748,185.282,-20.763,1147343
0.439,-0.260,-0.960,-59.603,176.076,-13.802,1151354
0.444,-0.243,-0.995,-59.053,164.183,19.847,1155365
0.410,-0.185,-0.990,-57.786,140.748,15.893,1159376
0.420,-0.163,-1.005,-56.015,108.015,14.321,1163387
0.428,-0.142,-0.982,-53.695,86.198,14.198,1167398
0.422,-0.112,-0.985,-50.427,58.183,11.908,1171409
0.423,-0.092,-1.001,-47.115,31.023,9.008,1175420
0.424,-0.077,-0.976,-43.924,11.221,7.481,1179431
0.419,-0.067,-0.970,-40.687,1.710,7.282,1183443
0.417,-0.068,-0.948,-37.267,4.061,10.092,1187454
0.432,-0.065,-0.961,-34.183,11.282,20.901,1191465
0.417,-0.062,-0.971,-31.450,16.977,24.779,1195476
0.410,-0.056,-0.969,-28.931,25.176,25.237,1199487
0.374,-0.052,-0.979,-26.366,33.756,17.237,1203498
0.396,-0.069,-0.973,-23.725,41.542,14.550,1207508
0.380,-0.069,-0.991,-21.725,46.626,14.794,1211519
0.370,-0.077,-1.021,-19.069,41.374,12.641,1215530
0.375,-0.081,-1.018,-16.931,35.282,11.573,1219541
0.366,-0.077,-1.028,-14.763,30.702,11.237,1223556
0.357,-0.082,-1.035,-12.641,22.122,9.527,1227568
0.372,-0.084,-1.032,-11.023,15.878,8.092,1231578
0.382,-0.091,-1.029,-9.389,8.336,6.534,1235589
0.390,-0.095,-1.041,-8.000,3.267,4.168,1239601
0.409,-0.109,-1.022,-7.160,5.252,4.870,1243620
0.416,-0.111,-1.036,-6.107,4.977,4.763,1247632
0.421,-0.112,-1.046,-5.695,4.397,4.702,1251643
0.429,-0.109,-1.034,-5.130,5.649,2.809,1255654
0.439,-0.116,-1.058,-4.519,5.695,1.725,1259665
0.431,-0.118,-1.053,-3.588,3.603,0.489,1263686
0.432,-0.125,-1.074,-2.748,-1.298,0.015,1267698
0.430,-0.129,-1.092,-1.908,-9.313,0.015,1271709
0.425,-0.133,-1.100,-1.420,-17.008,-0.092,1275720
0.424,-0.139,-1.102,-0.733,-24.458,-0.168,1279731
0.410,-0.141,-1.103,-0.198,-31.023,-0.214,1283744
0.396,-0.154,-1.117,0.107,-36.427,-1.084,1287755
0.392,-0.157,-1.118,0.427,-45.664,-3.008,1291766
0.394,-0.168,-1.112,0.168,-48.458,-4.183,1295778
0.385,-0.173,-1.107,-0.122,-50.718,-4.916,1299789
0.376,-0.184,-1.115,-0.595,-50.153,-5.832,1303801
0.373,-0.183,-1.116,-1.313,-48.962,-5.802,1307811
0.373,-0.196,-1.129,-2.412,-49.969,-6.382,1311822
0.382,-0.196,-1.133,-3.588,-48.473,-6.519,1315833
0.363,-0.195,-1.135,-4.702,-49.618,-7.359,1319844
0.365,-0.197,-1.138,-5.771,-48.809,-8.366,1323865
0.360,-0.201,-1.140,-7.115,-48.947,-9.298,1327876
0.365,-0.201,-1.146,-8.718,-51.511,-10.046,1331887
0.361,-0.202,-1.152,-9.939,-54.031,-11.160,1335898
0.357,-0.199,-1.155,-11.038,-57.618,-11.802,1339917
0.349,-0.197,-1.146,-11.924,-60.763,-12.656,1343928
0.339,-0.188,-1.163,-12.595,-63.573,-13.710,1347939
0.331,-0.181,-1.168,-13.130,-65.053,-14.290,1351950
0.318,-0.173,-1.165,-13.344,-69.053,-15.176,1355961
0.304,-0.168,-1.168,-13.160,-72.962,-15.969,1359972
0.301,-0.166,-1.158,-12.855,-73.405,-16.137,1363983
0.277,-0.156,-1.164,-12.275,-73.420,-16.153,1367994
0.254,-0.156,-1.165,-11.588,-72.183,-15.603,1372005
0.247,-0.150,-1.162,-10.519,-70.931,-14.885,1376016
0.235,-0.149,-1.151,-9.603,-68.840,-13.908,1380027
0.225,-0.156,-1.155,-8.763,-64.153,-13.145,1384038
0.207,-0.146,-1.151,-7.679,-58.977,-11.969,1388049
0.191,-0.148,-1.153,-6.260,-54.061,-10.840,1392060
0.181,-0.151,-1.150,-5.206,-48.458,-9.542,1396071
0.177,-0.151,-1.146,-4.092,-42.458,-8.076,1400083
0.177,-0.157,-1.150,-3.389,-35.084,-7.634,1404094
0.184,-0.159,-1.140,-2.595,-26.656,-7.252,1408106
0.201,-0.164,-1.137,-2.000,-20.137,-6.321,1412117
0.213,-0.169,-1.141,-1.634,-11.878,-4.779,1416128
0.227,-0.170,-1.136,-1.359,-3.313,-3.252,1420139
0.227,-0.161,-1.155,-1.069,0.489,-2.198,1424150
0.244,-0.163,-1.156,-1.084,3.969,-1.069,1428157
0.245,-0.170,-1.156,-1.298,4.000,-0.244,1432168
0.255,-0.166,-1.163,-0.824,3.328,0.183,1436179
0.254,-0.161,-1.159,-0.687,1.740,0.137,1440190
0.252,-0.160,-1.161,-0.397,-2.718,-0.275,1444201
0.259,-0.168,-1.160,-0.458,-6.840,-0.779,1448213
0.261,-0.172,-1.152,-0.687,-7.847,-0.809,1452223
0.252,-0.171,-1.158,-0.962,-10.168,-1.130,1456234
0.266,-0.169,-1.145,-1.389,-12.153,-1.298,1460245
0.261,-0.174,-1.142,-2.076,-12.244,-1.160,1464256
0.263,-0.171,-1.148,-2.565,-12.519,-1.344,1468268
0.263,-0.177,-1.135,-3.252,-10.305,-1.313,1472279
0.257,-0.173,-1.133,-3.710,-9.130,-1.206,1476291
0.253,-0.169,-1.138,-4.168,-9.603,-1.359,1480301
0.253,-0.168,-1.145,-4.809,-9.313,-1.374,1484312
0.251,-0.166,-1.127,-5.115,-9.115,-1.710,1488323
0.239,-0.161,-1.123,-5.435,-9.130,-2.061,1492334
0.238,-0.158,-1.129,-5.496,-8.931,-2.336,1496345
0.230,-0.150,-1.139,-5.557,-8.840,-2.458,1500357
0.233,-0.149,-1.130,-5.847,-9.328,-2.824,1504368
0.227,-0.145,-1.136,-6.092,-9.847,-3.298,1508379
0.221,-0.152,-1.118,-6.000,-9.008,-3.466,1512390
0.209,-0.149,-1.130,-6.076,-8.092,-3.802,1516401
0.204,-0.147,-1.129,-5.878,-7.282,-3.695,1520413
0.199,-0.143,-1.125,-5.374,-5.878,-3.725,1524424
0.189,-0.141,-1.119,-5.023,-4.290,-3.511,1528434
0.187,-0.130,-1.130,-4.015,-1.084,-2.718,1532445
0.190,-0.135,-1.126,-3.069,2.931,-2.260,1536456
0.205,-0.128,-1.112,-2.473,7.084,-1.832,1540467
0.212,-0.131,-1.120,-1.908,9.221,-1.313,1544478
0.222,-0.137,-1.117,-1.511,13.481,-0.550,1548489
0.222,-0.137,-1.119,-1.099,17.985,0.611,1552501
0.224,-0.139,-1.124,-0.580,18.885,0.870,1556512
0.239,-0.147,-1.135,-0.565,18.885,1.450,1560523
0.259,-0.145,-1.135,-0.794,16.443,1.282,1564534
0.264,-0.149,-1.123,-1.008,14.626,0.733,1568545
0.265,-0.156,-1.125,-1.878,12.885,0.611,1572556
0.259,-0.155,-1.133,-2.366,7.679,0.580,1576567
0.259,-0.150,-1.134,-2.733,2.580,0.412,1580579
0.259,-0.150,-1.123,-3.359,0.641,0.000,1584590
0.257,-0.151,-1.127,-3.817,-2.992,-0.748,1588602
0.252,-0.154,-1.140,-4.336,-7.313,-1.252,1592612
0.239,-0.154,-1.122,-4.947,-9.221,-1.359,1596623
0.231,-0.151,-1.127,-4.947,-10.489,-1.557,1600634
0.227,-0.145,-1.115,-5.237,-8.565,-1.176,1604645
0.215,-0.143,-1.122,-5.863,-7.313,-0.580,1608656
0.212,-0.141,-1.116,-5.832,-6.489,-0.489,1612677
0.212,-0.138,-1.112,-5.802,-3.435,0.061,1616688
0.218,-0.135,-1.115,-5.649,0.550,0.626,1620699
0.211,-0.134,-1.118,-5.282,3.725,1.099,1624710
0.219,-0.130,-1.122,-4.824,4.763,1.389,1628722
0.215,-0.136,-1.095,-4.137,7.695,1.771,1632735
0.224,-0.134,-1.113,-3.725,9.435,2.183,1636746
0.228,-0.138,-1.118,-3.527,10.031,2.382,1640757
0.230,-0.139,-1.120,-3.313,9.008,2.427,1644768
0.232,-0.140,-1.118,-2.901,7.496,2.290,1648780
0.239,-0.136,-1.122,-2.336,7.359,2.198,1652791
0.238,-0.138,-1.114,-2.000,6.794,1.985,1656802
0.246,-0.137,-1.118,-1.725,4.702,1.282,1660814
0.235,-0.142,-1.118,-1.786,2.550,1.298,1664825
0.230,-0.149,-1.123,-1.695,2.458,1.145,1668836
0.239,-0.153,-1.125,-1.405,1.771,0.931,1672846
0.240,-0.158,-1.126,-1.634,1.069,0.840,1676857
0.248,-0.151,-1.120,-1.649,0.382,0.779,1680868
0.248,-0.161,-1.116,-1.618,1.099,0.687,1684880
0.242,-0.170,-1.122,-2.366,1.466,0.702,1688891
0.239,-0.174,-1.119,-2.687,1.115,0.565,1692901
0.238,-0.173,-1.115,-2.550,1.023,0.198,1696912
0.247,-0.162,-1.109,-1.878,1.954,-0.427,1700923
0.222,-0.162,-1.139,-2.244,1.298,-0.137,1704934
0.235,-0.157,-1.117,-2.229,1.191,-0.305,1708945
0.236,-0.161,-1.135,-2.290,1.802,-0.718,1712966
0.240,-0.163,-1.143,-2.595,2.015,-1.099,1716977
0.240,-0.159,-1.131,-2.550,1.908,-1.115,1720989
0.238,-0.167,-1.136,-2.473,1.496,-1.053,1724999
0.243,-0.162,-1.126,-2.427,1.786,-1.160,1729010
0.252,-0.162,-1.133,-2.641,2.061,-1.313,1733031
0.250,-0.161,-1.131,-2.763,0.382,-1.466,1737042
0.250,-0.162,-1.134,-3.252,-0.244,-1.374,1741053
0.253,-0.168,-1.127,-3.802,-1.115,-1.496,1745064
0.255,-0.166,-1.119,-3.985,-2.015,-1.374,1749075
0.259,-0.175,-1.116,-4.763,-2.687,-1.237,1753087
0.264,-0.169,-1.115,-4.992,-4.229,-1.328,1757098
0.262,-0.165,-1.126,-5.298,-5.832,-1.481,1761109
0.266,-0.169,-1.124,-5.573,-7.588,-1.695,1765120
0.260,-0.160,-1.111,-5.496,-9.328,-1.649,1769131
0.253,-0.156,-1.130,-5.542,-10.351,-1.740,1773141
0.246,-0.155,-1.125,-5.450,-11.115,-1.695,1777152
0.242,-0.149,-1.132,-4.947,-12.305,-1.695,1781163
0.239,-0.149,-1.122,-4.107,-14.122,-1.588,1785175
0.229,-0.144,-1.122,-3.466,-13.679,-1.756,1789186
0.241,-0.145,-1.122,-3.008,-13.115,-1.206,1793206
0.239,-0.147,-1.108,-2.809,-11.802,-1.160,1797216
0.218,-0.156,-1.125,-2.702,-11.420,-0.748,1801227
0.208,-0.153,-1.112,-2.046,-11.634,-0.351,1805238
0.198,-0.155,-1.122,-1.664,-11.527,-0.122,1809249
0.185,-0.155,-1.120,-0.962,-11.588,-0.031,1813269
0.195,-0.150,-1.123,-0.076,-10.672,-0.092,1817280
0.198,-0.156,-1.113,-0.214,-8.275,0.351,1821291
0.208,-0.166,-1.121,-0.107,-4.885,0.534,1825302
0.216,-0.173,-1.110,-0.122,-0.229,1.206,1829313
0.222,-0.175,-1.113,-0.687,2.733,1.588,1833333
0.220,-0.178,-1.116,-1.130,5.252,1.359,1837343
0.237,-0.176,-1.119,-2.061,10.412,1.908,1841354
0.235,-0.170,-1.120,-2.443,11.267,1.511,1845365
0.242,-0.159,-1.118,-2.397,10.977,1.603,1849376
0.255,-0.157,-1.110,-2.718,10.443,1.313,1853387
0.251,-0.170,-1.122,-2.885,8.504,1.023,1857398
0.254,-0.163,-1.120,-3.130,6.092,0.427,1861409
0.249,-0.156,-1.125,-3.053,1.557,-0.260,1865420
0.251,-0.155,-1.114,-2.916,-1.924,-0.595,1869431
0.242,-0.151,-1.119,-2.794,-2.611,-0.656,1873443
0.232,-0.153,-1.134,-2.641,-6.931,-1.450,1877454
0.231,-0.150,-1.122,-2.366,-9.084,-1.511,1881465
0.232,-0.155,-1.129,-2.137,-9.069,-1.618,1885476
0.230,-0.155,-1.110,-1.908,-6.992,-1.435,1889487
0.232,-0.152,-1.106,-1.802,-3.832,-0.977,1893498
0.233,-0.158,-1.105,-1.374,-2.779,-0.656,1897508
0.227,-0.158,-1.102,-1.023,0.458,-0.198,1901519
0.228,-0.152,-1.117,-0.794,2.214,-0.198,1905530
0.235,-0.156,-1.105,-0.641,4.626,0.153,1909541
0.232,-0.143,-1.113,-0.305,6.962,0.748,1913556
0.228,-0.145,-1.117,-0.107,6.397,0.870,1917568
0.235,-0.153,-1.110,-0.061,6.824,0.779,1921578
0.234,-0.162,-1.117,-0.107,5.160,0.382,1925589
0.236,-0.164,-1.120,-0.229,3.450,0.229,1929601
0.238,-0.169,-1.119,-0.229,3.176,0.168,1933620
0.241,-0.162,-1.119,-0.595,2.992,0.198,1937632
0.246,-0.164,-1.119,-0.702,2.656,0.092,1941643
0.249,-0.167,-1.122,-1.115,2.305,-0.031,1945654
0.247,-0.166,-1.127,-1.450,1.893,-0.107,1949665
0.254,-0.156,-1.122,-1.527,1.802,-0.122,1953686
0.249,-0.156,-1.122,-1.695,2.122,-0.275,1957698
0.247,-0.153,-1.122,-1.664,1.939,-0.412,1961709
0.246,-0.151,-1.123,-1.359,1.115,-0.412,1965720
0.244,-0.151,-1.129,-1.084,0.855,-0.702,1969731
0.247,-0.153,-1.128,-0.855,0.855,-0.779,1973744
0.241,-0.154,-1.116,-0.489,1.053,-1.038,1977755
0.234,-0.158,-1.133,-0.351,0.733,-1.405,1981766
0.236,-0.156,-1.124,-0.275,1.069,-1.511,1985778
0.236,-0.161,-1.124,-0.137,1.786,-1.710,1989789
0.234,-0.165,-1.124,-0.046,3.115,-1.542,1993801
0.235,-0.162,-1.129,0.000,3.893,-1.450,1997812
0.232,-0.167,-1.120,-0.107,4.198,-1.328,2001822
