acc_x,acc_y,acc_z,gyro_x,gyro_y,gyro_z,time
0.278,-0.046,-1.080,11.084,-25.435,0.061,0
0.282,-0.042,-1.078,11.679,-26.733,0.260,4046
0.286,-0.046,-1.079,12.214,-28.489,-0.168,8059
0.277,-0.034,-1.070,12.534,-30.214,-0.534,12070
0.277,-0.026,-1.072,12.824,-32.641,-0.534,16081
0.273,-0.024,-1.073,12.718,-35.145,-0.779,20092
0.270,-0.025,-1.069,12.366,-38.153,-0.840,24103
0.271,-0.031,-1.073,12.168,-40.779,-1.313,28115
0.270,-0.035,-1.072,12.000,-43.496,-1.252,32125
0.254,-0.036,-1.082,11.908,-46.489,-1.298,36136
0.250,-0.037,-1.074,12.000,-50.061,-0.901,40147
0.250,-0.034,-1.078,12.748,-53.511,-0.519,44158
0.239,-0.024,-1.084,13.908,-56.901,-0.092,48169
0.238,-0.026,-1.082,15.374,-60.015,0.687,52180
0.240,-0.017,-1.098,16.901,-63.328,1.679,56191
0.230,-0.016,-1.092,18.473,-66.962,2.718,60202
0.230,-0.015,-1.095,20.260,-70.351,3.924,64213
0.225,-0.029,-1.097,21.771,-73.237,4.901,68225
0.215,-0.028,-1.105,23.664,-76.031,5.939,72236
0.212,-0.031,-1.113,26.534,-79.664,8.244,76248
0.214,-0.046,-1.115,25.053,-81.145,8.824,80258
0.196,-0.048,-1.107,25.527,-82.427,8.076,84269
0.164,-0.040,-1.121,27.389,-83.618,7.496,88281
0.157,-0.050,-1.111,28.137,-83.557,7.695,92292
0.161,-0.047,-1.109,28.321,-83.298,7.298,96304
0.151,-0.048,-1.119,29.618,-82.885,6.504,100314
0.155,-0.060,-1.128,30.122,-82.641,5.985,104325
0.156,-0.058,-1.121,30.458,-82.656,5.282,108337
0.161,-0.070,-1.124,30.748,-83.603,5.160,112348
0.149,-0.077,-1.128,28.794,-83.176,3.298,116359
0.140,-0.071,-1.136,29.832,-83.924,2.122,120371
0.143,-0.082,-1.132,28.870,-84.611,1.221,124382
0.137,-0.098,-1.129,28.031,-85.130,0.489,128392
0.145,-0.101,-1.127,27.237,-86.321,-0.275,132403
0.146,-0.112,-1.129,25.847,-86.962,-1.267,136414
0.142,-0.118,-1.131,25.252,-88.550,-2.244,140425
0.144,-0.124,-1.126,23.786,-88.534,-3.344,144436
0.141,-0.125,-1.136,23.084,-89.344,-4.000,148446
0.142,-0.134,-1.129,22.076,-92.382,-4.885,152457
0.138,-0.126,-1.137,20.595,-93.298,-6.015,156468
0.126,-0.128,-1.140,19.435,-93.313,-7.420,160480
0.112,-0.130,-1.138,18.672,-93.847,-8.458,164491
0.107,-0.133,-1.150,17.985,-95.359,-9.618,168503
0.099,-0.133,-1.142,16.855,-97.756,-10.641,172514
0.092,-0.145,-1.151,15.695,-99.298,-12.229,176525
0.089,-0.136,-1.154,15.557,-101.191,-12.031,180536
0.087,-0.149,-1.150,13.832,-102.061,-13.084,184547
0.071,-0.155,-1.142,12.412,-102.397,-14.595,188557
0.052,-0.155,-1.138,12.382,-103.038,-15.969,192568
0.030,-0.158,-1.140,12.427,-103.695,-16.840,196579
0.016,-0.167,-1.140,10.153,-103.817,-18.168,200590
0.021,-0.164,-1.136,10.061,-104.031,-19.008,204601
0.023,-0.173,-1.135,10.076,-104.275,-19.435,208613
0.021,-0.192,-1.127,9.481,-104.718,-19.618,212624
0.022,-0.182,-1.123,8.763,-105.389,-19.481,216636
0.019,-0.196,-1.125,7.802,-106.137,-19.176,220647
0.012,-0.200,-1.110,5.878,-107.191,-19.282,224658
0.021,-0.209,-1.115,4.076,-108.122,-19.725,228670
0.011,-0.210,-1.121,2.427,-109.130,-20.198,232689
0.019,-0.221,-1.127,0.092,-111.099,-20.534,236700
0.020,-0.228,-1.113,-3.389,-111.710,-22.137,240711
0.009,-0.217,-1.110,-5.389,-112.840,-23.389,244722
-0.006,-0.210,-1.108,-8.260,-113.481,-25.954,248734
-0.019,-0.205,-1.094,-9.603,-114.244,-28.351,252745
-0.035,-0.194,-1.088,-10.000,-114.382,-30.824,256757
-0.043,-0.186,-1.091,-10.336,-114.718,-33.099,260767
-0.043,-0.174,-1.077,-9.695,-115.023,-35.374,264778
-0.049,-0.151,-1.069,-8.046,-115.176,-37.802,268791
-0.051,-0.136,-1.078,-6.412,-115.863,-40.031,272802
-0.055,-0.133,-1.059,-3.542,-116.901,-41.542,276813
-0.061,-0.127,-1.058,-0.672,-117.908,-43.053,280824
-0.068,-0.126,-1.056,2.244,-119.237,-43.466,284835
-0.073,-0.133,-1.061,5.328,-120.855,-43.588,288846
-0.080,-0.151,-1.057,8.092,-123.099,-43.130,292856
-0.087,-0.160,-1.056,10.244,-125.221,-42.992,296868
-0.090,-0.172,-1.039,12.977,-128.229,-42.519,300879
-0.089,-0.184,-1.046,14.733,-131.328,-42.214,304890
-0.111,-0.204,-1.046,14.702,-134.489,-41.863,308902
-0.118,-0.207,-1.043,14.855,-137.832,-41.359,312914
-0.139,-0.214,-1.046,14.809,-140.275,-40.794,316925
-0.145,-0.226,-1.046,14.198,-142.992,-40.519,320936
-0.159,-0.231,-1.046,13.191,-145.618,-40.855,324947
-0.177,-0.225,-1.031,12.626,-147.664,-41.405,328958
-0.197,-0.230,-1.034,12.366,-149.817,-41.893,332978
-0.211,-0.221,-1.026,12.122,-151.649,-42.122,336988
-0.225,-0.220,-1.017,13.084,-153.786,-41.725,340999
-0.252,-0.213,-1.022,13.542,-155.618,-41.771,345010
-0.264,-0.214,-1.024,15.023,-157.695,-41.099,349021
-0.281,-0.222,-1.014,15.817,-159.130,-41.069,353042
-0.301,-0.222,-1.020,16.351,-160.382,-40.580,357053
-0.335,-0.219,-1.017,16.336,-160.626,-41.084,361064
-0.363,-0.229,-1.022,17.252,-161.298,-41.053,365075
-0.380,-0.235,-1.008,17.924,-161.878,-40.000,369086
-0.374,-0.243,-1.003,20.000,-162.305,-38.046,373100
-0.361,-0.222,-0.986,24.336,-163.679,-34.992,377110
-0.361,-0.226,-0.996,24.763,-163.908,-34.076,381121
-0.383,-0.220,-0.978,27.053,-164.168,-33.374,385132
-0.406,-0.219,-0.980,30.244,-164.290,-31.817,389143
-0.416,-0.216,-0.969,32.550,-165.527,-29.328,393153
-0.410,-0.224,-0.960,34.260,-166.580,-26.901,397164
-0.418,-0.240,-0.943,34.718,-166.687,-26.031,401175
-0.420,-0.246,-0.929,37.435,-167.710,-24.962,405186
-0.437,-0.263,-0.913,36.595,-166.916,-24.275,409197
-0.467,-0.275,-0.895,36.504,-165.878,-23.450,413217
-0.483,-0.286,-0.882,37.405,-164.595,-22.687,417228
-0.497,-0.283,-0.869,38.382,-163.389,-21.893,421239
-0.511,-0.298,-0.864,36.061,-161.710,-22.000,425250
-0.530,-0.299,-0.847,33.847,-158.840,-22.382,429261
-0.538,-0.300,-0.840,32.611,-156.046,-22.137,433282
-0.528,-0.300,-0.818,31.176,-153.282,-21.557,437293
-0.518,-0.294,-0.798,30.382,-150.885,-20.687,441304
-0.494,-0.290,-0.779,31.145,-149.160,-20.290,445315
-0.458,-0.285,-0.762,31.634,-147.954,-20.260,449326
-0.431,-0.279,-0.752,32.779,-147.374,-20.641,453344
-0.426,-0.289,-0.746,32.870,-146.229,-21.252,457355
-0.434,-0.302,-0.745,32.840,-145.496,-21.786,461366
-0.447,-0.304,-0.744,33.527,-146.122,-22.321,465377
-0.459,-0.320,-0.730,32.962,-146.656,-23.450,469388
-0.463,-0.312,-0.727,34.962,-148.214,-25.252,473400
-0.473,-0.309,-0.722,37.160,-150.214,-27.176,477410
-0.505,-0.296,-0.738,38.580,-153.389,-28.641,481421
-0.548,-0.299,-0.740,37.908,-155.878,-29.023,485432
-0.584,-0.279,-0.737,38.244,-158.840,-27.893,489443
-0.610,-0.266,-0.740,38.687,-161.573,-26.153,493454
-0.630,-0.260,-0.747,38.565,-163.695,-24.397,497466
-0.645,-0.254,-0.744,38.901,-166.748,-22.397,501476
-0.660,-0.250,-0.735,39.191,-168.718,-20.412,505487
-0.677,-0.266,-0.745,37.969,-169.954,-17.786,509498
-0.709,-0.277,-0.745,37.466,-169.420,-15.038,513509
-0.742,-0.283,-0.743,36.809,-167.878,-10.870,517520
-0.767,-0.295,-0.741,36.656,-166.305,-7.053,521531
-0.761,-0.278,-0.725,37.878,-164.794,-3.618,525542
-0.751,-0.280,-0.729,40.962,-164.779,-1.099,529553
-0.750,-0.283,-0.720,40.656,-163.176,0.641,533568
-0.759,-0.301,-0.722,40.870,-160.489,3.328,537579
-0.756,-0.317,-0.703,41.176,-158.519,5.985,541590
-0.751,-0.341,-0.694,40.687,-156.275,7.588,545602
-0.736,-0.354,-0.680,39.725,-153.511,8.595,549613
-0.713,-0.352,-0.667,40.275,-152.076,9.145,553634
-0.682,-0.362,-0.657,39.802,-151.191,8.336,557645
-0.669,-0.378,-0.641,39.038,-150.794,6.702,561656
-0.666,-0.400,-0.641,37.511,-151.649,4.947,565667
-0.654,-0.413,-0.624,35.206,-152.244,3.481,569678
-0.629,-0.427,-0.605,34.427,-154.397,1.588,573698
-0.622,-0.439,-0.600,30.779,-154.992,-1.771,577709
-0.629,-0.440,-0.592,29.542,-155.924,-5.664,581720
-0.661,-0.445,-0.573,27.695,-156.580,-9.313,585731
-0.691,-0.456,-0.577,25.053,-156.885,-12.260,589742
-0.711,-0.462,-0.568,22.046,-156.336,-14.779,593752
-0.741,-0.464,-0.558,18.840,-155.008,-17.527,597763
-0.763,-0.465,-0.552,16.137,-153.069,-19.802,601774
-0.792,-0.460,-0.551,13.817,-150.595,-22.122,605785
-0.825,-0.446,-0.551,11.282,-146.824,-24.046,609796
-0.848,-0.434,-0.546,9.511,-143.084,-25.969,613807
-0.885,-0.440,-0.545,7.099,-138.916,-26.641,617817
-0.900,-0.431,-0.551,5.008,-136.382,-25.832,621828
-0.898,-0.437,-0.531,3.084,-133.740,-24.000,625839
-0.878,-0.442,-0.526,3.084,-132.595,-21.618,629850
-0.848,-0.448,-0.510,2.366,-130.290,-19.435,633871
-0.846,-0.442,-0.502,1.435,-127.374,-18.076,637882
-0.857,-0.438,-0.493,1.725,-125.145,-16.748,641893
-0.882,-0.426,-0.471,0.992,-122.397,-14.718,645905
-0.896,-0.415,-0.459,0.366,-120.076,-12.580,649917
-0.896,-0.405,-0.447,0.031,-117.863,-10.504,653928
-0.899,-0.393,-0.428,0.626,-115.359,-9.893,657939
-0.896,-0.380,-0.417,1.542,-112.794,-9.802,661950
-0.920,-0.381,-0.411,2.427,-109.344,-10.489,665961
-0.946,-0.378,-0.412,3.344,-104.855,-10.824,669972
-0.965,-0.385,-0.398,3.557,-100.000,-10.076,673983
-0.970,-0.383,-0.390,3.618,-96.550,-8.885,677995
-0.945,-0.376,-0.381,4.641,-91.313,-8.550,682005
-0.938,-0.383,-0.378,5.573,-90.092,-8.733,686016
-0.932,-0.390,-0.385,6.397,-85.954,-8.901,690027
-0.932,-0.400,-0.394,5.863,-82.565,-8.458,694038
-0.924,-0.405,-0.394,4.992,-79.771,-7.603,698049
-0.904,-0.415,-0.388,4.107,-77.038,-7.237,702060
-0.893,-0.417,-0.386,3.618,-74.656,-7.695,706071
-0.896,-0.414,-0.371,3.237,-71.954,-8.260,710082
-0.899,-0.420,-0.368,2.702,-69.603,-8.809,714093
-0.909,-0.424,-0.358,2.198,-66.473,-9.221,718105
-0.915,-0.431,-0.348,1.099,-63.221,-9.145,722116
-0.925,-0.432,-0.346,-0.321,-59.695,-8.916,726127
-0.908,-0.429,-0.348,-1.969,-56.550,-8.351,730138
-0.900,-0.438,-0.341,-3.664,-54.534,-8.015,734149
-0.880,-0.430,-0.336,-6.183,-52.718,-7.389,738160
-0.859,-0.428,-0.327,-8.473,-51.389,-7.145,742172
-0.849,-0.425,-0.314,-10.626,-49.710,-7.191,746183
-0.852,-0.438,-0.320,-12.916,-48.489,-6.580,750195
-0.852,-0.437,-0.305,-15.511,-48.992,-5.298,754206
-0.810,-0.417,-0.291,-16.321,-50.382,-4.168,758219
-0.783,-0.396,-0.282,-16.107,-52.046,-4.305,762230
-0.772,-0.395,-0.276,-15.481,-53.481,-5.237,766242
-0.790,-0.398,-0.281,-14.779,-55.008,-5.405,770253
-0.804,-0.395,-0.260,-14.427,-55.649,-5.634,774264
-0.816,-0.406,-0.267,-13.405,-55.924,-5.908,778276
-0.820,-0.393,-0.261,-11.710,-55.389,-6.672,782287
-0.835,-0.395,-0.253,-10.015,-54.595,-7.435,786299
-0.834,-0.395,-0.256,-8.916,-54.336,-7.634,790309
-0.827,-0.401,-0.255,-8.550,-54.733,-7.130,794320
-0.800,-0.406,-0.247,-8.137,-55.725,-7.053,798332
-0.787,-0.405,-0.238,-7.344,-55.832,-7.496,802344
-0.792,-0.417,-0.242,-7.069,-55.695,-8.321,806354
-0.810,-0.416,-0.244,-6.992,-54.977,-8.748,810365
-0.824,-0.417,-0.245,-7.008,-54.015,-8.977,814376
-0.834,-0.421,-0.236,-7.206,-53.008,-9.542,818387
-0.843,-0.421,-0.239,-7.145,-51.389,-10.595,822399
-0.854,-0.428,-0.248,-7.389,-49.328,-11.313,826410
-0.875,-0.417,-0.250,-7.069,-46.718,-12.412,830421
-0.900,-0.419,-0.251,-6.992,-42.580,-13.191,834433
-0.921,-0.407,-0.254,-7.176,-39.115,-13.557,838443
-0.928,-0.402,-0.252,-7.527,-35.191,-13.313,842455
-0.918,-0.398,-0.245,-7.282,-32.046,-13.466,846465
-0.909,-0.407,-0.250,-7.130,-29.634,-13.191,850476
-0.897,-0.416,-0.254,-7.420,-27.908,-12.580,854487
-0.869,-0.431,-0.247,-8.489,-27.435,-11.725,858498
-0.843,-0.438,-0.241,-9.481,-27.328,-10.947,862509
-0.829,-0.436,-0.247,-10.122,-27.466,-11.160,866520
-0.831,-0.441,-0.250,-10.550,-27.542,-11.435,870531
-0.853,-0.431,-0.245,-10.611,-27.481,-12.168,874542
-0.880,-0.420,-0.251,-10.504,-27.099,-12.473,878550
-0.891,-0.425,-0.256,-10.137,-26.397,-12.702,882561
-0.900,-0.422,-0.253,-9.847,-25.099,-12.107,886572
-0.915,-0.425,-0.241,-8.916,-23.160,-11.863,890584
-0.916,-0.423,-0.244,-7.786,-21.130,-11.389,894595
-0.919,-0.418,-0.253,-7.634,-19.374,-10.656,898606
-0.908,-0.422,-0.241,-7.649,-18.183,-9.160,902617
-0.886,-0.423,-0.236,-7.084,-17.344,-8.244,906628
-0.864,-0.415,-0.242,-5.939,-17.008,-7.725,910640
-0.857,-0.419,-0.229,-5.237,-17.069,-7.115,914651
-0.855,-0.424,-0.234,-5.191,-17.374,-6.427,918662
-0.851,-0.432,-0.239,-4.992,-18.015,-5.679,922683
-0.849,-0.436,-0.244,-4.580,-18.046,-5.802,926694
-0.856,-0.437,-0.237,-4.015,-18.321,-5.924,930705
-0.871,-0.425,-0.242,-3.450,-17.954,-6.595,934716
-0.887,-0.417,-0.241,-2.718,-17.267,-7.130,938727
-0.892,-0.416,-0.239,-2.168,-15.786,-7.603,942742
-0.901,-0.413,-0.247,-1.847,-13.908,-7.893,946753
-0.909,-0.422,-0.232,-2.214,-12.107,-7.435,950765
-0.903,-0.427,-0.234,-2.733,-10.580,-6.916,954776
-0.896,-0.427,-0.238,-2.641,-9.359,-6.885,958786
-0.898,-0.428,-0.230,-2.504,-8.031,-7.099,962798
-0.889,-0.435,-0.238,-3.252,-7.099,-6.550,966809
-0.879,-0.443,-0.231,-4.687,-7.374,-5.695,970820
-0.850,-0.432,-0.228,-5.878,-8.382,-4.931,974831
-0.838,-0.432,-0.218,-6.153,-9.053,-5.053,978842
-0.835,-0.427,-0.218,-6.366,-9.924,-5.618,982852
-0.855,-0.435,-0.223,-6.427,-9.969,-5.863,986864
-0.868,-0.442,-0.220,-6.412,-9.634,-6.366,990875
-0.871,-0.438,-0.228,-6.366,-9.053,-6.672,994886
-0.874,-0.437,-0.213,-6.519,-8.641,-6.855,998898
-0.882,-0.436,-0.209,-6.168,-7.878,-7.252,1002907
-0.885,-0.425,-0.211,-5.679,-6.611,-7.389,1006918
-0.891,-0.421,-0.207,-5.084,-5.389,-7.740,1010929
-0.900,-0.412,-0.200,-4.794,-4.046,-7.924,1014940
-0.904,-0.413,-0.208,-4.840,-2.702,-7.420,1018951
-0.898,-0.407,-0.206,-4.870,-1.802,-7.023,1022970
-0.899,-0.411,-0.200,-4.656,-0.641,-6.611,1026981
-0.901,-0.415,-0.214,-4.473,0.626,-6.336,1030992
-0.902,-0.417,-0.209,-4.321,1.496,-6.153,1035003
-0.900,-0.421,-0.213,-4.443,2.168,-5.359,1039014
-0.898,-0.425,-0.214,-4.137,2.702,-4.763,1043035
-0.886,-0.430,-0.221,-3.832,3.313,-4.534,1047046
-0.888,-0.432,-0.213,-3.557,3.802,-4.321,1051058
-0.906,-0.434,-0.216,-3.511,4.733,-4.168,1055068
-0.909,-0.434,-0.219,-3.282,5.924,-4.031,1059079
-0.915,-0.432,-0.221,-3.282,7.359,-3.542,1063091
-0.906,-0.439,-0.218,-3.298,8.397,-2.977,1067101
-0.897,-0.437,-0.221,-3.420,9.252,-2.382,1071112
-0.879,-0.435,-0.220,-3.405,10.031,-2.031,1075123
-0.874,-0.435,-0.221,-3.328,11.053,-2.214,1079134
-0.887,-0.436,-0.219,-3.435,11.954,-2.183,1083144
-0.885,-0.434,-0.219,-3.221,12.794,-2.275,1087156
-0.887,-0.435,-0.236,-3.496,13.496,-2.366,1091166
-0.885,-0.438,-0.217,-3.695,14.977,-2.504,1095177
-0.880,-0.438,-0.236,-3.893,16.244,-2.947,1099188
-0.887,-0.448,-0.233,-4.427,17.176,-3.099,1103209
-0.884,-0.448,-0.241,-5.328,17.450,-2.595,1107220
-0.861,-0.447,-0.244,-6.275,17.298,-2.244,1111231
-0.839,-0.451,-0.232,-7.115,16.489,-1.969,1115242
-0.833,-0.448,-0.230,-7.649,15.985,-2.168,1119253
-0.840,-0.454,-0.232,-7.557,14.885,-2.290,1123274
-0.852,-0.451,-0.234,-8.046,14.519,-2.443,1127286
-0.870,-0.450,-0.251,-8.458,14.611,-2.702,1131297
-0.887,-0.453,-0.251,-8.641,15.023,-2.565,1135308
-0.886,-0.446,-0.241,-8.565,15.710,-2.168,1139320
-0.896,-0.437,-0.237,-8.855,16.565,-2.076,1143337
-0.896,-0.439,-0.243,-8.992,18.015,-2.031,1147348
-0.902,-0.439,-0.236,-8.473,20.275,-1.817,1151359
-0.909,-0.428,-0.242,-8.168,22.076,-1.832,1155370
-0.907,-0.433,-0.233,-8.412,24.504,-1.176,1159381
-0.905,-0.437,-0.231,-8.427,26.519,-0.336,1163393
-0.881,-0.440,-0.240,-8.733,28.260,0.092,1167404
-0.854,-0.437,-0.239,-8.672,29.405,0.443,1171416
-0.832,-0.442,-0.225,-8.733,29.817,0.672,1175426
-0.822,-0.443,-0.232,-8.550,29.969,0.565,1179437
-0.823,-0.447,-0.228,-8.611,30.122,0.763,1183448
-0.811,-0.448,-0.243,-9.237,30.015,0.366,1187459
-0.816,-0.452,-0.238,-9.679,30.366,0.229,1191470
-0.817,-0.458,-0.245,-10.321,31.115,-0.733,1195481
-0.827,-0.458,-0.256,-11.084,32.198,-1.863,1199492
-0.841,-0.461,-0.265,-12.214,34.198,-3.298,1203503
-0.860,-0.466,-0.265,-13.328,37.145,-4.641,1207515
-0.876,-0.469,-0.281,-15.099,41.267,-5.954,1211526
-0.908,-0.473,-0.290,-16.489,46.229,-6.962,1215537
-0.920,-0.468,-0.301,-18.641,52.122,-8.382,1219548
-0.941,-0.480,-0.312,-21.756,58.183,-9.206,1223557
-0.951,-0.493,-0.329,-26.198,64.748,-9.313,1227568
-0.954,-0.497,-0.348,-30.763,70.901,-9.573,1231579
-0.948,-0.504,-0.360,-36.153,76.458,-9.985,1235591
-0.927,-0.508,-0.379,-42.031,81.328,-9.740,1239602
-0.917,-0.520,-0.374,-48.427,85.313,-9.145,1243621
-0.874,-0.529,-0.391,-55.496,88.458,-7.817,1247632
-0.839,-0.540,-0.397,-62.290,90.534,-7.542,1251643
-0.824,-0.558,-0.415,-70.229,91.969,-7.939,1255655
-0.816,-0.566,-0.428,-77.969,93.527,-8.382,1259666
-0.814,-0.556,-0.425,-85.160,95.023,-8.992,1263687
-0.825,-0.569,-0.433,-91.786,96.550,-10.244,1267698
-0.835,-0.555,-0.441,-97.985,99.038,-11.908,1271710
-0.862,-0.544,-0.445,-103.038,101.588,-13.817,1275721
-0.871,-0.535,-0.449,-107.069,105.160,-15.557,1279732
-0.887,-0.515,-0.446,-110.366,109.573,-16.962,1283744
-0.916,-0.491,-0.453,-113.405,114.977,-18.031,1287754
-0.929,-0.465,-0.444,-113.710,121.511,-19.206,1291765
-0.965,-0.438,-0.442,-112.565,129.130,-21.420,1295776
-0.994,-0.408,-0.453,-110.473,137.405,-23.252,1299787
-1.030,-0.379,-0.447,-107.206,148.076,-24.061,1303800
-1.082,-0.374,-0.449,-103.634,160.382,-24.137,1307811
-1.106,-0.359,-0.444,-98.672,174.092,-22.916,1311821
-1.132,-0.336,-0.453,-92.534,189.328,-20.733,1315832
-1.148,-0.309,-0.445,-84.687,205.038,-17.664,1319843
-1.153,-0.299,-0.463,-79.969,222.321,-14.214,1323864
-1.132,-0.323,-0.467,-72.550,237.374,-6.473,1327875
-1.037,-0.320,-0.498,-66.840,246.168,1.099,1331886
-0.902,-0.350,-0.480,-67.863,251.115,6.656,1335897
-0.777,-0.412,-0.470,-70.748,251.252,9.908,1339917
-0.648,-0.441,-0.492,-71.008,246.519,13.588,1343928
-0.568,-0.495,-0.496,-72.382,237.450,16.366,1347939
-0.470,-0.504,-0.521,-72.122,223.863,20.305,1351950
-0.428,-0.512,-0.530,-74.824,208.489,21.511,1355961
-0.406,-0.495,-0.537,-74.870,191.481,22.718,1359972
-0.415,-0.473,-0.534,-75.237,174.076,23.359,1363983
-0.430,-0.441,-0.554,-74.885,157.618,22.931,1367995
-0.456,-0.422,-0.553,-74.855,141.924,21.863,1372005
-0.482,-0.378,-0.571,-71.863,128.168,20.870,1376016
-0.505,-0.329,-0.582,-67.084,116.473,19.176,1380027
-0.535,-0.298,-0.582,-62.901,106.626,17.466,1384038
-0.582,-0.288,-0.585,-58.473,99.176,15.786,1388049
-0.631,-0.267,-0.600,-52.748,94.000,14.137,1392060
-0.678,-0.250,-0.609,-46.198,91.008,13.084,1396071
-0.723,-0.255,-0.606,-40.397,90.901,13.145,1400082
-0.773,-0.242,-0.616,-34.031,92.656,13.893,1404093
-0.808,-0.240,-0.625,-27.344,96.580,15.908,1408105
-0.840,-0.240,-0.621,-22.015,103.420,18.015,1412116
-0.873,-0.238,-0.629,-16.504,112.015,21.145,1416127
-0.894,-0.241,-0.618,-11.252,121.985,24.809,1420138
-0.911,-0.254,-0.629,-6.443,133.298,29.756,1424149
-0.908,-0.263,-0.649,-2.489,144.733,35.023,1428160
-0.883,-0.284,-0.660,-0.183,154.870,40.672,1432172
-0.822,-0.308,-0.658,0.840,161.527,44.885,1436183
-0.741,-0.333,-0.660,1.023,164.962,47.679,1440195
-0.681,-0.348,-0.670,0.336,165.542,48.733,1444206
-0.627,-0.374,-0.683,0.519,164.916,49.802,1448219
-0.594,-0.374,-0.702,0.305,162.687,50.641,1452230
-0.584,-0.383,-0.718,0.076,160.168,51.267,1456242
-0.569,-0.370,-0.733,0.382,156.031,51.542,1460253
-0.552,-0.353,-0.741,0.504,151.634,51.099,1464264
-0.535,-0.344,-0.751,0.809,147.038,50.504,1468276
-0.518,-0.338,-0.754,1.298,142.122,49.603,1472287
-0.503,-0.329,-0.766,1.985,137.634,48.580,1476299
-0.501,-0.324,-0.779,2.794,133.267,47.282,1480309
-0.500,-0.321,-0.794,3.573,129.710,46.031,1484320
-0.507,-0.321,-0.808,4.290,126.824,45.038,1488332
-0.513,-0.313,-0.809,5.130,124.641,44.550,1492344
-0.528,-0.311,-0.825,5.908,123.008,44.260,1496354
-0.536,-0.305,-0.828,6.595,122.351,44.076,1500365
-0.548,-0.303,-0.836,7.573,122.198,43.954,1504376
-0.561,-0.294,-0.840,8.122,122.824,44.168,1508387
-0.572,-0.295,-0.857,8.550,124.366,44.519,1512399
-0.576,-0.297,-0.867,8.550,126.031,45.038,1516410
-0.570,-0.303,-0.871,8.336,128.031,45.573,1520421
-0.561,-0.312,-0.880,7.786,129.954,46.000,1524433
-0.547,-0.309,-0.895,6.824,131.359,45.771,1528443
-0.532,-0.321,-0.897,5.511,132.275,45.679,1532455
-0.516,-0.336,-0.897,3.817,132.885,45.725,1536465
-0.500,-0.344,-0.915,1.878,132.519,45.542,1540476
-0.483,-0.353,-0.924,0.000,131.603,45.191,1544487
-0.468,-0.352,-0.921,-1.603,130.366,44.351,1548498
-0.454,-0.355,-0.927,-2.641,128.748,44.046,1552509
-0.446,-0.340,-0.932,-3.588,126.397,43.267,1556520
-0.431,-0.332,-0.944,-4.092,124.031,42.809,1560531
-0.426,-0.314,-0.944,-4.611,121.573,42.076,1564542
-0.425,-0.317,-0.955,-5.344,118.702,41.267,1568550
-0.418,-0.311,-0.950,-5.710,116.397,40.947,1572561
-0.411,-0.308,-0.958,-5.969,114.290,40.336,1576572
-0.405,-0.304,-0.953,-6.092,112.412,40.076,1580584
-0.404,-0.311,-0.968,-5.878,110.855,40.000,1584595
-0.404,-0.306,-0.960,-5.786,109.664,39.817,1588606
-0.398,-0.307,-0.956,-5.450,108.962,39.878,1592617
-0.401,-0.305,-0.951,-4.931,108.611,39.969,1596628
-0.397,-0.299,-0.965,-4.244,109.206,40.290,1600640
-0.398,-0.304,-0.958,-3.496,109.725,40.366,1604651
-0.389,-0.304,-0.965,-3.298,111.557,40.992,1608662
-0.399,-0.295,-0.961,-3.176,113.435,41.588,1612683
-0.392,-0.301,-0.963,-3.664,117.099,41.878,1616694
-0.401,-0.320,-0.971,-4.305,121.450,42.870,1620705
-0.376,-0.311,-0.965,-4.977,123.969,42.885,1624716
-0.368,-0.311,-0.957,-5.252,127.420,42.656,1628727
-0.364,-0.327,-0.964,-5.710,132.244,43.389,1632742
-0.339,-0.317,-0.957,-6.733,135.237,43.313,1636753
-0.320,-0.323,-0.956,-8.733,137.817,42.931,1640765
-0.299,-0.321,-0.963,-11.359,138.321,43.145,1644776
-0.263,-0.332,-0.963,-14.031,139.298,42.458,1648786
-0.249,-0.336,-0.965,-16.473,139.878,41.878,1652798
-0.218,-0.344,-0.972,-18.122,140.137,40.626,1656809
-0.198,-0.332,-0.973,-19.313,139.435,39.405,1660820
-0.180,-0.327,-0.979,-20.229,137.511,37.847,1664831
-0.181,-0.317,-0.985,-21.344,135.817,36.595,1668842
-0.163,-0.302,-0.987,-21.603,133.389,35.359,1672852
-0.148,-0.299,-1.009,-20.855,130.931,34.656,1676864
-0.132,-0.275,-1.006,-19.969,127.954,34.611,1680875
-0.119,-0.273,-1.013,-18.534,123.939,34.443,1684886
-0.099,-0.257,-1.012,-16.992,119.954,33.481,1688898
-0.106,-0.255,-1.022,-15.481,115.832,32.473,1692907
-0.106,-0.251,-1.031,-14.000,111.588,31.481,1696918
-0.105,-0.251,-1.033,-12.687,107.924,30.870,1700929
-0.111,-0.250,-1.047,-11.756,104.458,30.336,1704941
-0.123,-0.253,-1.059,-11.267,101.435,29.511,1708952
-0.134,-0.257,-1.070,-11.191,98.489,28.931,1712971
-0.142,-0.269,-1.070,-11.496,96.336,28.229,1716982
-0.150,-0.272,-1.083,-11.817,94.779,27.405,1720993
-0.169,-0.276,-1.086,-12.336,93.817,27.115,1725004
-0.175,-0.268,-1.099,-13.099,93.069,27.038,1729015
-0.183,-0.265,-1.097,-14.473,92.672,26.794,1733036
-0.188,-0.268,-1.109,-16.137,92.702,26.748,1737047
-0.194,-0.267,-1.106,-17.450,93.282,26.916,1741059
-0.194,-0.268,-1.106,-18.595,94.168,27.084,1745070
-0.187,-0.269,-1.098,-19.115,95.405,27.252,1749081
-0.198,-0.270,-1.091,-19.771,96.656,27.359,1753093
-0.194,-0.266,-1.094,-20.031,97.832,27.252,1757104
-0.192,-0.262,-1.102,-19.969,99.221,27.115,1761116
-0.183,-0.262,-1.114,-19.664,99.573,26.947,1765127
-0.172,-0.258,-1.121,-19.878,100.321,26.855,1769138
-0.154,-0.272,-1.117,-20.260,100.168,26.122,1773148
-0.136,-0.277,-1.133,-20.580,99.588,25.710,1777159
-0.123,-0.281,-1.128,-20.763,98.565,25.008,1781170
-0.114,-0.282,-1.132,-21.023,97.374,25.084,1785182
-0.122,-0.283,-1.135,-21.496,95.985,25.099,1789193
-0.113,-0.295,-1.143,-22.397,94.794,25.145,1793212
-0.109,-0.294,-1.126,-23.115,93.344,25.389,1797223
-0.106,-0.294,-1.134,-23.435,92.519,25.527,1801234
-0.108,-0.302,-1.134,-23.847,92.046,25.878,1805245
-0.110,-0.299,-1.138,-24.382,91.969,26.122,1809256
-0.130,-0.303,-1.133,-25.664,92.275,26.534,1813275
-0.123,-0.300,-1.126,-26.840,93.221,27.221,1817286
-0.120,-0.298,-1.123,-27.725,94.412,27.450,1821297
-0.113,-0.293,-1.121,-28.977,95.832,27.954,1825308
-0.118,-0.292,-1.102,-30.550,97.832,28.489,1829319
-0.109,-0.281,-1.091,-32.489,100.000,29.389,1833337
-0.099,-0.279,-1.080,-34.244,101.725,30.168,1837348
-0.062,-0.272,-1.077,-35.664,103.206,30.198,1841359
-0.033,-0.258,-1.062,-36.809,103.817,29.725,1845370
0.007,-0.257,-1.059,-37.252,103.282,28.534,1849381
0.037,-0.250,-1.045,-37.405,102.198,27.466,1853392
0.069,-0.240,-1.056,-37.527,100.183,26.901,1857404
0.102,-0.234,-1.064,-37.298,96.611,26.336,1861414
0.148,-0.235,-1.073,-37.313,91.405,25.282,1865425
0.203,-0.237,-1.063,-36.672,85.481,23.466,1869436
0.237,-0.233,-1.080,-35.542,78.092,20.992,1873448
0.247,-0.233,-1.080,-34.183,70.015,18.534,1877459
0.241,-0.230,-1.081,-33.267,63.405,15.756,1881471
0.221,-0.220,-1.092,-32.244,56.489,13.740,1885481
0.207,-0.211,-1.100,-31.405,50.290,11.328,1889492
0.192,-0.198,-1.107,-30.794,44.824,8.718,1893502
0.170,-0.195,-1.109,-30.366,41.084,6.840,1897513
0.143,-0.190,-1.112,-30.382,39.084,5.664,1901524
0.125,-0.184,-1.121,-30.702,38.397,4.534,1905535
0.095,-0.179,-1.116,-31.374,38.687,3.832,1909546
0.081,-0.169,-1.124,-31.802,39.939,3.237,1913556
0.060,-0.172,-1.120,-32.550,41.710,3.313,1917568
0.041,-0.166,-1.112,-33.695,43.985,3.863,1921579
0.040,-0.164,-1.105,-34.718,46.794,4.718,1925591
0.050,-0.160,-1.111,-35.481,49.924,5.802,1929602
0.051,-0.155,-1.105,-35.725,53.145,6.824,1933621
0.062,-0.135,-1.097,-35.344,55.786,7.634,1937632
0.077,-0.120,-1.088,-34.473,58.321,8.214,1941643
0.075,-0.106,-1.069,-32.931,60.580,8.779,1945655
0.078,-0.090,-1.075,-31.298,62.168,9.252,1949666
0.086,-0.078,-1.081,-29.466,64.153,9.145,1953687
0.087,-0.068,-1.086,-27.267,65.374,9.160,1957698
0.098,-0.070,-1.079,-24.931,66.336,8.901,1961710
0.111,-0.066,-1.088,-22.427,66.534,8.779,1965721
0.122,-0.074,-1.087,-20.107,66.260,8.550,1969732
0.131,-0.065,-1.092,-17.924,65.603,8.305,1973744
0.135,-0.082,-1.094,-15.985,64.580,7.863,1977754
0.153,-0.080,-1.106,-14.534,63.679,7.695,1981765
0.156,-0.088,-1.101,-13.191,62.229,7.069,1985776
0.159,-0.093,-1.109,-12.046,61.206,7.023,1989787
0.148,-0.100,-1.101,-11.252,60.321,6.779,1993800
0.153,-0.096,-1.122,-10.397,59.344,6.519,1997811
0.147,-0.098,-1.125,-9.588,58.702,5.985,2001822
