acc_x,acc_y,acc_z,gyro_x,gyro_y,gyro_z,time
0.144,0.031,-1.121,-3.649,3.435,0.641,0
0.140,0.027,-1.116,-3.756,3.374,0.443,4048
0.143,0.038,-1.111,-3.786,3.115,0.397,8061
0.146,0.036,-1.114,-3.939,2.641,0.275,12072
0.148,0.032,-1.117,-3.679,2.336,-0.107,16083
0.151,0.038,-1.114,-3.847,2.046,-0.046,20094
0.149,0.033,-1.110,-3.771,1.679,-0.229,24105
0.144,0.037,-1.117,-3.969,1.420,-0.260,28116
0.143,0.038,-1.120,-4.412,1.527,-0.168,32127
0.137,0.039,-1.124,-4.565,1.084,-0.565,36139
0.139,0.036,-1.108,-4.611,1.405,-0.443,40150
0.139,0.033,-1.117,-4.427,1.359,-0.336,44161
0.137,0.049,-1.116,-4.412,1.893,-0.092,48170
0.131,0.043,-1.121,-4.473,2.198,-0.229,52182
0.140,0.046,-1.109,-4.519,2.397,0.015,56192
0.144,0.045,-1.118,-4.611,2.244,0.031,60203
0.153,0.041,-1.120,-4.611,2.183,0.137,64215
0.151,0.042,-1.125,-4.290,1.740,-0.061,68226
0.155,0.044,-1.125,-4.214,1.649,-0.244,72237
0.156,0.042,-1.128,-3.863,0.824,-0.397,76248
0.149,0.036,-1.122,-3.740,0.702,-0.473,80259
0.154,0.044,-1.122,-3.573,0.397,-0.489,84271
0.148,0.039,-1.122,-3.847,0.260,-0.580,88282
0.144,0.035,-1.117,-3.893,0.565,-0.351,92294
0.137,0.035,-1.121,-3.847,0.672,-0.687,96305
0.137,0.037,-1.111,-3.542,0.931,-0.382,100317
0.142,0.038,-1.119,-3.359,1.435,-0.122,104328
0.128,0.035,-1.111,-3.710,1.740,-0.168,108339
0.125,0.031,-1.115,-3.817,2.214,0.061,112351
0.132,0.028,-1.105,-4.580,2.702,0.015,116362
0.133,0.027,-1.105,-4.992,2.916,0.244,120374
0.136,0.025,-1.113,-5.313,3.328,0.198,124385
0.145,0.031,-1.111,-5.603,3.511,0.458,128395
0.147,0.031,-1.112,-5.618,3.542,0.366,132407
0.140,0.036,-1.117,-5.939,3.664,0.412,136418
0.147,0.034,-1.119,-6.214,3.084,0.321,140430
0.155,0.037,-1.126,-6.626,2.061,-0.137,144441
0.167,0.046,-1.135,-6.504,0.611,-0.580,148451
0.171,0.039,-1.129,-6.183,-0.397,-0.977,152462
0.173,0.044,-1.130,-5.588,-1.053,-1.252,156473
0.161,0.045,-1.126,-5.008,-1.466,-1.420,160484
0.145,0.042,-1.132,-4.763,-1.756,-1.328,164495
0.141,0.047,-1.116,-4.733,-1.817,-1.130,168506
0.130,0.034,-1.116,-4.687,-1.298,-0.947,172517
0.126,0.042,-1.114,-4.672,-0.962,-0.824,176528
0.124,0.033,-1.121,-4.733,-0.580,-0.626,180540
0.125,0.036,-1.109,-4.504,0.198,-0.443,184551
0.124,0.021,-1.121,-4.382,1.511,-0.321,188561
0.122,0.034,-1.116,-4.595,2.321,0.137,192573
0.127,0.027,-1.116,-4.702,2.641,0.198,196584
0.138,0.030,-1.107,-4.824,3.130,0.565,200596
0.137,0.032,-1.112,-4.824,3.267,0.565,204607
0.139,0.029,-1.114,-5.053,3.252,0.489,208618
0.137,0.038,-1.118,-4.916,3.282,0.550,212629
0.147,0.033,-1.113,-4.779,3.038,0.473,216640
0.143,0.035,-1.115,-4.870,3.084,0.275,220651
0.139,0.029,-1.114,-4.916,3.053,0.214,224662
0.144,0.031,-1.113,-5.206,2.855,0.351,228674
0.138,0.032,-1.112,-5.298,2.947,0.260,232692
0.150,0.040,-1.124,-5.435,2.718,0.443,236702
0.138,0.030,-1.126,-5.420,2.733,0.336,240713
0.143,0.037,-1.120,-5.221,2.855,0.550,244724
0.139,0.040,-1.125,-5.160,3.115,0.458,248736
0.146,0.046,-1.124,-5.252,2.656,0.519,252748
0.156,0.049,-1.136,-5.313,1.878,0.183,256759
0.162,0.051,-1.136,-5.145,1.038,-0.046,260770
0.167,0.053,-1.121,-4.931,0.901,-0.504,264781
0.160,0.040,-1.125,-4.489,0.168,-0.824,268793
0.141,0.038,-1.132,-4.183,0.458,-0.672,272805
0.135,0.039,-1.122,-4.260,0.672,-0.443,276816
0.125,0.037,-1.124,-4.275,0.901,-0.183,280828
0.127,0.031,-1.111,-4.214,1.237,-0.046,284839
0.137,0.034,-1.115,-4.580,1.756,-0.092,288850
0.132,0.032,-1.117,-4.885,1.985,0.244,292860
0.143,0.031,-1.121,-5.099,2.748,0.290,296871
0.142,0.029,-1.114,-5.023,2.824,0.290,300882
0.141,0.031,-1.110,-4.962,2.885,0.443,304893
0.144,0.031,-1.109,-5.099,2.794,0.351,308905
0.147,0.029,-1.118,-5.191,3.008,0.412,312915
0.141,0.026,-1.112,-5.573,2.855,0.275,316926
0.142,0.034,-1.114,-5.542,2.916,0.122,320938
0.142,0.035,-1.126,-5.466,2.824,0.351,324949
0.145,0.037,-1.112,-5.282,2.580,0.153,328960
0.145,0.035,-1.117,-5.237,2.382,-0.122,332980
0.146,0.037,-1.121,-5.588,2.076,-0.031,336991
0.151,0.039,-1.127,-5.832,1.893,-0.092,341002
0.149,0.035,-1.116,-6.031,1.817,-0.061,345013
0.141,0.034,-1.120,-5.847,1.847,-0.107,349024
0.152,0.041,-1.120,-5.954,1.954,-0.092,353045
0.156,0.033,-1.125,-5.679,1.771,-0.107,357057
0.140,0.036,-1.122,-5.588,1.511,-0.122,361067
0.147,0.040,-1.121,-5.573,1.221,-0.290,365078
0.145,0.035,-1.127,-5.511,1.282,-0.214,369089
0.151,0.035,-1.121,-5.664,1.008,-0.427,373103
0.149,0.034,-1.118,-5.832,1.038,-0.412,377114
0.148,0.034,-1.122,-5.817,1.008,-0.626,381125
0.142,0.035,-1.124,-5.511,1.130,-0.504,385136
0.135,0.032,-1.112,-5.405,1.191,-0.351,389147
0.137,0.032,-1.119,-5.344,1.313,-0.153,393159
0.147,0.033,-1.122,-5.389,1.160,-0.153,397170
0.140,0.033,-1.124,-5.420,1.130,-0.244,401181
0.148,0.043,-1.120,-5.573,1.130,-0.275,405193
0.142,0.044,-1.122,-5.466,1.221,-0.305,409204
0.140,0.045,-1.122,-5.237,1.237,-0.153,413225
0.141,0.040,-1.115,-4.916,1.573,-0.214,417236
0.140,0.046,-1.119,-4.794,1.756,-0.107,421248
0.137,0.041,-1.123,-4.840,1.893,-0.046,425259
0.131,0.026,-1.126,-4.992,1.985,-0.076,429270
0.141,0.037,-1.126,-5.267,1.832,0.137,433290
0.150,0.041,-1.115,-4.992,1.878,0.046,437302
0.147,0.039,-1.122,-4.748,1.725,-0.015,441312
0.148,0.041,-1.121,-4.672,1.802,-0.183,445323
0.151,0.044,-1.121,-4.412,1.832,-0.214,449334
0.146,0.036,-1.120,-4.504,1.557,-0.198,453346
0.140,0.034,-1.122,-4.855,1.786,-0.061,457357
0.143,0.036,-1.115,-5.023,1.603,-0.137,461368
0.150,0.034,-1.115,-4.977,1.160,-0.229,465379
0.144,0.032,-1.104,-4.992,1.023,-0.321,469390
0.146,0.030,-1.117,-5.145,0.947,-0.397,473401
0.135,0.027,-1.118,-5.450,1.160,-0.351,477412
0.136,0.033,-1.117,-5.618,1.450,-0.214,481423
0.137,0.031,-1.114,-6.015,1.420,-0.076,485434
0.142,0.035,-1.119,-6.229,1.664,-0.183,489445
0.140,0.032,-1.114,-6.198,1.496,0.000,493456
0.143,0.035,-1.115,-6.137,1.954,-0.092,497467
0.147,0.039,-1.117,-5.710,1.954,-0.015,501478
0.147,0.038,-1.118,-5.542,2.412,0.168,505489
0.151,0.043,-1.118,-5.435,2.489,-0.015,509500
0.146,0.035,-1.132,-5.359,2.214,0.092,513511
0.154,0.046,-1.124,-5.298,1.985,0.107,517522
0.147,0.038,-1.122,-5.298,1.481,-0.076,521534
0.156,0.039,-1.117,-4.824,1.328,-0.244,525544
0.154,0.036,-1.126,-4.779,1.267,-0.290,529555
0.150,0.039,-1.124,-4.733,1.313,-0.397,533565
0.147,0.042,-1.118,-4.885,1.374,-0.137,537576
0.142,0.037,-1.128,-4.947,1.573,0.000,541587
0.137,0.041,-1.109,-5.221,1.237,-0.153,545598
0.144,0.032,-1.122,-5.145,1.435,0.061,549609
0.138,0.039,-1.115,-5.053,1.481,-0.107,553629
0.140,0.040,-1.117,-4.870,1.588,-0.092,557640
0.145,0.038,-1.116,-4.870,1.618,-0.046,561651
0.139,0.033,-1.107,-4.794,1.496,0.122,565663
0.149,0.034,-1.111,-5.069,1.649,0.015,569674
0.144,0.035,-1.118,-4.962,1.649,-0.061,573694
0.148,0.030,-1.123,-4.977,1.649,-0.183,577705
0.145,0.036,-1.126,-4.947,1.328,-0.061,581716
0.151,0.038,-1.119,-4.687,1.389,-0.153,585727
0.143,0.034,-1.117,-4.733,1.374,-0.015,589738
0.143,0.042,-1.125,-4.733,1.344,-0.092,593749
0.148,0.044,-1.128,-5.023,1.160,-0.183,597760
0.146,0.041,-1.116,-4.702,1.176,-0.092,601771
0.142,0.042,-1.116,-4.519,1.130,-0.290,605782
0.142,0.043,-1.113,-4.336,1.328,-0.382,609793
0.150,0.037,-1.115,-4.489,1.282,-0.168,613805
0.146,0.033,-1.120,-4.458,1.435,-0.137,617815
0.148,0.034,-1.110,-4.702,1.038,-0.244,621826
0.148,0.037,-1.120,-5.191,1.145,-0.260,625837
0.145,0.034,-1.122,-5.344,1.023,-0.183,629848
0.145,0.042,-1.125,-5.359,1.237,-0.244,633868
0.143,0.032,-1.117,-5.542,1.023,-0.229,637879
0.141,0.035,-1.115,-5.252,1.176,-0.275,641891
0.145,0.033,-1.115,-5.282,1.023,-0.351,645901
0.138,0.032,-1.110,-5.313,0.687,-0.061,649918
0.143,0.040,-1.123,-5.573,1.282,-0.122,653929
0.148,0.030,-1.119,-5.511,1.542,-0.061,657940
0.139,0.030,-1.109,-5.511,1.664,-0.061,661952
0.134,0.036,-1.120,-5.588,1.893,0.076,665962
0.140,0.029,-1.115,-5.634,1.695,0.122,669973
0.142,0.034,-1.120,-5.466,1.649,0.061,673984
0.145,0.027,-1.119,-5.725,1.435,-0.244,677996
0.155,0.036,-1.116,-6.122,1.069,-0.122,682008
0.147,0.040,-1.114,-6.229,1.053,-0.092,686018
0.145,0.040,-1.121,-6.458,1.023,-0.092,690029
0.144,0.035,-1.120,-6.244,1.115,-0.061,694040
0.145,0.037,-1.118,-6.061,1.160,-0.031,698052
0.138,0.038,-1.117,-5.863,1.099,-0.244,702063
0.148,0.042,-1.119,-5.954,0.733,-0.183,706074
0.145,0.041,-1.107,-6.275,1.084,-0.229,710085
0.137,0.037,-1.111,-6.550,1.145,-0.183,714096
0.148,0.036,-1.110,-6.595,1.466,-0.076,718107
0.144,0.047,-1.122,-6.260,1.450,0.076,722118
0.148,0.040,-1.118,-6.107,1.450,0.137,726129
0.147,0.034,-1.124,-5.740,1.160,-0.046,730140
0.146,0.038,-1.118,-5.786,1.206,-0.046,734151
0.155,0.030,-1.126,-5.802,0.702,-0.275,738158
0.151,0.029,-1.124,-5.802,0.916,-0.397,742169
0.145,0.038,-1.123,-5.557,0.580,-0.336,746181
0.140,0.035,-1.119,-5.191,0.855,-0.214,750191
0.143,0.043,-1.126,-4.931,0.718,-0.336,754202
0.133,0.037,-1.110,-4.519,0.763,-0.107,758213
0.136,0.045,-1.120,-4.137,1.053,-0.107,762224
0.140,0.041,-1.121,-4.168,0.656,-0.046,766235
0.139,0.042,-1.125,-4.168,1.084,-0.122,770246
0.142,0.039,-1.126,-4.153,1.084,-0.046,774257
0.138,0.034,-1.122,-4.061,1.160,-0.275,778268
0.142,0.030,-1.126,-3.786,1.389,-0.061,782279
0.141,0.031,-1.116,-3.847,1.649,-0.061,786290
0.145,0.032,-1.112,-4.046,1.573,-0.229,790301
0.140,0.036,-1.116,-4.473,1.542,0.122,794312
0.145,0.037,-1.110,-4.733,1.252,-0.198,798323
0.150,0.035,-1.120,-4.809,1.145,-0.260,802334
0.153,0.039,-1.117,-5.038,0.840,-0.305,806345
0.148,0.034,-1.115,-5.191,1.221,-0.427,810357
0.138,0.032,-1.124,-5.176,1.252,-0.336,814368
0.142,0.040,-1.115,-5.160,1.328,-0.153,818378
0.141,0.037,-1.111,-5.435,1.466,0.015,822389
0.138,0.038,-1.115,-5.786,1.359,0.031,826400
0.141,0.034,-1.120,-5.969,1.374,0.092,830412
0.145,0.030,-1.126,-6.122,1.435,-0.076,834423
0.151,0.031,-1.114,-5.817,1.481,0.031,838433
0.146,0.038,-1.113,-5.557,1.725,0.260,842444
0.136,0.036,-1.118,-5.405,1.557,0.198,846455
0.139,0.038,-1.124,-5.466,1.588,0.000,850466
0.139,0.036,-1.122,-5.695,1.618,0.198,854477
0.144,0.037,-1.119,-5.359,1.527,-0.031,858488
0.147,0.039,-1.117,-5.069,1.328,0.214,862499
0.143,0.038,-1.115,-4.702,1.420,0.244,866510
0.146,0.041,-1.119,-4.550,1.115,-0.076,870521
0.149,0.036,-1.122,-4.366,1.099,-0.107,874532
0.147,0.033,-1.118,-4.092,1.023,-0.229,878540
0.137,0.040,-1.115,-4.229,0.947,-0.168,882552
0.137,0.035,-1.118,-4.366,1.313,-0.137,886562
0.134,0.040,-1.113,-4.504,1.435,-0.336,890573
0.136,0.040,-1.110,-4.290,1.649,-0.061,894584
0.136,0.032,-1.114,-4.382,1.740,0.015,898598
0.135,0.032,-1.123,-4.504,2.183,-0.092,902610
0.139,0.036,-1.110,-4.702,2.366,0.061,906620
0.143,0.037,-1.114,-5.099,2.550,0.031,910631
0.142,0.038,-1.115,-5.206,2.565,0.076,914642
0.141,0.036,-1.117,-5.252,2.656,0.198,918654
0.151,0.040,-1.110,-5.053,2.626,0.092,922675
0.147,0.039,-1.125,-5.145,1.969,-0.092,926687
0.167,0.041,-1.114,-5.191,0.656,-0.321,930697
0.165,0.039,-1.125,-5.313,-0.183,-0.672,934708
0.169,0.037,-1.117,-5.160,-0.779,-1.038,938719
0.157,0.039,-1.118,-5.191,-0.885,-1.160,942730
0.147,0.041,-1.118,-4.901,-0.702,-1.191,946741
0.138,0.036,-1.120,-4.992,-0.412,-1.053,950752
0.130,0.041,-1.122,-4.779,0.122,-0.580,954763
0.124,0.038,-1.122,-5.038,0.366,-0.504,958776
0.132,0.036,-1.116,-5.145,1.145,-0.168,962787
0.124,0.037,-1.110,-5.389,1.679,0.137,966798
0.131,0.030,-1.103,-5.695,2.458,0.183,970809
0.137,0.027,-1.115,-5.618,3.115,0.290,974820
0.145,0.030,-1.127,-5.740,3.267,0.534,978831
0.145,0.031,-1.118,-5.771,3.252,0.534,982842
0.149,0.031,-1.107,-5.725,3.099,0.473,986853
0.149,0.039,-1.115,-5.802,2.672,0.534,990864
0.158,0.033,-1.115,-6.076,2.550,0.382,994875
0.156,0.035,-1.122,-6.107,2.275,0.458,998887
0.157,0.041,-1.120,-6.031,1.802,0.229,1002899
0.153,0.038,-1.118,-5.893,1.298,0.153,1006910
0.150,0.045,-1.118,-5.420,1.145,0.076,1010921
0.147,0.038,-1.121,-5.710,1.145,-0.214,1014932
0.142,0.038,-1.120,-5.511,1.389,-0.183,1018943
0.147,0.030,-1.121,-5.557,1.466,-0.137,1022963
0.143,0.039,-1.113,-5.618,1.557,-0.061,1026974
0.137,0.039,-1.118,-5.756,1.374,-0.168,1030986
0.138,0.033,-1.124,-5.710,1.115,-0.366,1034996
0.141,0.038,-1.119,-5.435,1.008,0.000,1039007
0.145,0.037,-1.123,-5.252,0.992,-0.214,1043028
0.143,0.043,-1.112,-5.252,1.435,-0.336,1047039
0.134,0.042,-1.122,-5.145,1.618,-0.061,1051050
0.138,0.035,-1.120,-5.145,1.603,-0.260,1055061
0.136,0.040,-1.119,-4.962,1.420,-0.198,1059072
0.143,0.039,-1.118,-4.779,1.466,-0.046,1063090
0.147,0.044,-1.124,-4.687,1.771,-0.107,1067102
0.149,0.042,-1.122,-4.427,1.756,-0.305,1071112
0.144,0.038,-1.119,-4.611,1.573,-0.244,1075123
0.144,0.039,-1.116,-4.870,1.435,-0.321,1079134
0.151,0.042,-1.115,-5.115,1.298,-0.198,1083145
0.155,0.043,-1.116,-5.053,1.099,-0.198,1087156
0.155,0.042,-1.111,-5.176,0.916,-0.229,1091167
0.148,0.041,-1.116,-5.237,1.145,-0.336,1095178
0.140,0.033,-1.123,-5.206,0.870,-0.229,1099189
0.147,0.034,-1.110,-5.313,0.656,-0.198,1103210
0.150,0.033,-1.120,-5.450,0.916,-0.412,1107221
0.146,0.031,-1.115,-5.725,0.412,-0.336,1111233
0.144,0.038,-1.125,-5.588,0.733,-0.321,1115244
0.150,0.034,-1.123,-5.435,1.023,-0.214,1119255
0.134,0.027,-1.115,-5.328,1.115,-0.305,1123275
0.139,0.037,-1.122,-5.038,1.313,-0.137,1127286
0.141,0.037,-1.119,-5.145,1.374,-0.137,1131297
0.141,0.040,-1.119,-5.252,1.359,-0.031,1135308
0.142,0.040,-1.115,-5.221,1.893,-0.168,1139319
0.140,0.040,-1.112,-4.931,1.802,-0.046,1143337
0.141,0.040,-1.121,-4.779,1.863,-0.076,1147348
0.143,0.037,-1.125,-4.794,1.756,-0.153,1151359
0.148,0.042,-1.116,-4.580,1.267,-0.168,1155371
0.152,0.039,-1.117,-4.702,1.466,-0.198,1159382
0.151,0.035,-1.115,-4.565,1.344,-0.321,1163393
0.147,0.034,-1.116,-4.748,1.405,-0.427,1167405
0.141,0.034,-1.111,-4.977,1.527,-0.275,1171415
0.134,0.034,-1.113,-5.008,1.649,-0.107,1175426
0.142,0.038,-1.125,-4.947,1.710,-0.061,1179437
0.132,0.036,-1.115,-4.901,1.664,-0.061,1183449
0.145,0.031,-1.104,-4.824,1.664,-0.031,1187459
0.142,0.039,-1.119,-5.221,1.710,-0.107,1191470
0.153,0.035,-1.121,-5.420,1.557,-0.260,1195481
0.157,0.042,-1.117,-5.389,1.206,-0.153,1199492
0.160,0.037,-1.110,-5.435,1.206,-0.336,1203502
0.146,0.030,-1.113,-5.206,0.992,-0.321,1207514
0.146,0.038,-1.115,-5.176,1.328,-0.290,1211524
0.138,0.034,-1.116,-5.099,1.359,-0.321,1215535
0.139,0.043,-1.116,-5.053,1.557,-0.122,1219547
0.138,0.038,-1.126,-5.160,1.374,-0.076,1223557
0.142,0.045,-1.123,-5.282,1.420,-0.137,1227568
0.147,0.036,-1.123,-4.962,1.206,-0.107,1231580
0.151,0.038,-1.119,-4.855,1.588,-0.137,1235590
0.146,0.041,-1.130,-4.489,1.435,-0.076,1239601
0.146,0.043,-1.115,-4.443,1.328,-0.275,1243621
0.143,0.034,-1.121,-4.260,1.160,-0.137,1247632
0.142,0.041,-1.119,-4.290,1.542,-0.031,1251643
0.138,0.038,-1.119,-4.733,1.206,-0.290,1255655
0.140,0.040,-1.120,-4.565,1.511,-0.122,1259666
0.137,0.039,-1.116,-4.534,1.817,-0.198,1263687
0.138,0.034,-1.115,-4.550,1.863,-0.046,1267698
0.132,0.031,-1.114,-4.611,2.260,0.076,1271710
0.140,0.040,-1.110,-4.489,2.366,0.076,1275720
0.137,0.034,-1.117,-4.931,2.000,-0.015,1279731
0.144,0.027,-1.116,-5.191,1.756,-0.061,1283744
0.155,0.039,-1.120,-5.160,1.206,-0.061,1287755
0.151,0.036,-1.117,-5.053,1.374,-0.260,1291767
0.156,0.038,-1.115,-4.931,0.977,-0.351,1295777
0.155,0.040,-1.120,-4.763,1.237,-0.443,1299788
0.142,0.040,-1.110,-4.870,1.160,-0.519,1303801
0.144,0.037,-1.123,-5.115,1.359,-0.489,1307811
0.134,0.039,-1.129,-5.038,1.435,-0.198,1311822
0.141,0.040,-1.121,-5.252,1.908,-0.137,1315833
0.145,0.038,-1.120,-5.221,1.939,-0.107,1319844
0.142,0.036,-1.120,-4.824,1.954,0.107,1323865
0.144,0.042,-1.118,-4.992,2.183,0.214,1327876
0.146,0.033,-1.117,-4.931,2.031,0.015,1331888
0.152,0.039,-1.110,-5.267,1.893,0.107,1335898
0.154,0.033,-1.110,-5.496,1.878,0.031,1339918
0.146,0.031,-1.119,-5.511,1.634,0.076,1343929
0.149,0.032,-1.122,-5.527,2.015,0.183,1347940
0.141,0.034,-1.118,-5.359,2.061,0.122,1351951
0.144,0.034,-1.115,-5.206,2.168,0.122,1355962
0.142,0.038,-1.123,-5.099,2.244,0.382,1359974
0.134,0.041,-1.126,-5.038,2.458,0.336,1363985
0.136,0.037,-1.125,-4.931,2.824,0.504,1367996
0.140,0.042,-1.115,-4.901,2.672,0.412,1372007
0.153,0.036,-1.115,-4.977,2.076,0.290,1376018
0.165,0.042,-1.116,-4.687,0.947,-0.260,1380030
0.170,0.038,-1.118,-4.809,0.321,-0.504,1384041
0.169,0.032,-1.124,-4.809,-0.260,-0.916,1388052
0.153,0.030,-1.117,-4.947,-0.412,-0.824,1392064
0.145,0.030,-1.115,-5.069,-0.336,-0.840,1396075
0.136,0.035,-1.117,-5.267,-0.214,-0.656,1400087
0.139,0.030,-1.115,-5.191,0.046,-0.672,1404098
0.132,0.040,-1.123,-5.145,0.153,-0.305,1408109
0.133,0.036,-1.117,-5.191,0.779,-0.183,1412120
0.140,0.042,-1.121,-5.084,1.786,0.000,1416131
0.129,0.040,-1.111,-5.206,2.412,0.015,1420142
0.138,0.040,-1.115,-5.221,2.931,0.137,1424153
0.144,0.042,-1.115,-5.405,3.267,0.321,1428162
0.142,0.042,-1.118,-5.298,2.992,0.321,1432173
0.153,0.039,-1.120,-5.267,2.489,0.290,1436184
0.152,0.038,-1.116,-5.099,2.336,0.107,1440195
0.154,0.038,-1.119,-5.282,1.847,-0.214,1444206
0.154,0.045,-1.111,-5.679,1.053,-0.290,1448219
0.158,0.036,-1.109,-6.015,0.397,-0.458,1452230
0.162,0.033,-1.125,-6.153,-0.305,-0.702,1456241
0.159,0.042,-1.114,-5.985,-0.763,-0.992,1460252
0.157,0.043,-1.107,-5.817,-1.099,-0.931,1464263
0.150,0.034,-1.124,-5.756,-0.809,-0.809,1468275
0.137,0.033,-1.117,-5.725,-0.351,-0.611,1472286
0.132,0.036,-1.125,-6.015,-0.076,-0.443,1476298
0.131,0.040,-1.111,-6.031,0.504,-0.290,1480309
0.132,0.041,-1.108,-6.031,0.641,-0.076,1484320
0.132,0.041,-1.121,-6.015,1.298,-0.137,1488333
0.135,0.034,-1.126,-5.481,1.832,0.122,1492345
0.137,0.037,-1.114,-5.191,1.893,0.107,1496355
0.148,0.040,-1.116,-5.069,2.122,0.183,1500366
0.148,0.036,-1.120,-5.084,2.015,0.137,1504378
0.151,0.040,-1.123,-5.176,1.481,-0.183,1508388
0.159,0.038,-1.117,-5.130,1.176,-0.107,1512399
0.152,0.043,-1.112,-4.855,0.931,-0.183,1516410
0.144,0.039,-1.107,-4.718,1.008,-0.198,1520422
0.145,0.043,-1.115,-4.565,1.130,-0.336,1524433
0.146,0.033,-1.125,-4.809,1.267,-0.305,1528443
0.142,0.036,-1.121,-5.008,1.359,-0.137,1532454
0.138,0.035,-1.118,-5.313,1.466,-0.183,1536465
0.142,0.036,-1.116,-5.466,1.603,-0.061,1540476
0.145,0.039,-1.114,-5.618,1.603,-0.275,1544487
0.151,0.037,-1.111,-5.511,1.206,-0.229,1548497
0.157,0.037,-1.127,-5.588,0.840,-0.458,1552509
0.155,0.039,-1.113,-5.786,0.473,-0.427,1556520
0.154,0.042,-1.115,-5.649,0.366,-0.718,1560532
0.151,0.040,-1.117,-5.756,0.031,-0.824,1564543
0.143,0.039,-1.121,-5.786,-0.275,-0.977,1568551
0.151,0.037,-1.124,-5.618,-0.412,-0.809,1572562
0.144,0.038,-1.120,-5.221,-0.595,-0.763,1576573
0.135,0.044,-1.123,-5.084,-0.351,-0.718,1580584
0.135,0.043,-1.120,-5.038,0.397,-0.656,1584595
0.132,0.030,-1.120,-5.252,0.672,-0.473,1588607
0.128,0.033,-1.121,-5.328,1.008,-0.336,1592618
0.135,0.042,-1.108,-5.511,1.359,-0.198,1596630
0.137,0.040,-1.119,-5.466,1.496,-0.092,1600641
0.142,0.039,-1.117,-5.176,1.817,-0.046,1604652
0.142,0.041,-1.117,-5.084,2.183,0.137,1608664
0.148,0.037,-1.124,-5.115,2.183,0.168,1612684
0.147,0.045,-1.120,-4.992,2.000,0.031,1616695
0.145,0.042,-1.112,-4.763,2.015,0.183,1620706
0.143,0.041,-1.117,-5.130,1.573,0.122,1624717
0.146,0.040,-1.121,-4.809,1.649,0.076,1628729
0.141,0.042,-1.122,-4.595,1.817,0.183,1632742
0.139,0.037,-1.117,-4.626,2.137,0.214,1636753
0.140,0.033,-1.108,-4.687,2.305,0.275,1640764
0.136,0.032,-1.119,-4.748,2.137,0.382,1644775
0.141,0.044,-1.120,-4.931,2.382,0.290,1648787
0.142,0.033,-1.118,-4.992,2.580,0.168,1652798
0.139,0.040,-1.125,-4.901,2.519,0.366,1656809
0.143,0.037,-1.117,-4.702,2.412,0.336,1660820
0.138,0.041,-1.118,-4.550,2.702,0.305,1664831
0.142,0.041,-1.123,-4.565,2.809,0.183,1668842
0.138,0.042,-1.115,-4.702,2.779,0.198,1672852
0.138,0.035,-1.116,-4.885,2.763,0.137,1676863
0.140,0.033,-1.111,-5.130,2.809,0.244,1680874
0.147,0.038,-1.115,-5.267,2.565,0.198,1684885
0.144,0.032,-1.125,-5.160,2.656,0.305,1688897
0.145,0.033,-1.112,-5.145,2.809,0.031,1692907
0.142,0.035,-1.114,-5.313,2.931,0.092,1696918
0.146,0.037,-1.112,-5.389,2.763,0.122,1700929
0.140,0.032,-1.115,-5.786,3.115,0.504,1704941
0.146,0.039,-1.110,-6.244,3.053,0.183,1708952
0.139,0.035,-1.116,-6.168,3.359,0.534,1712972
0.141,0.040,-1.113,-6.153,3.237,0.473,1716983
0.142,0.041,-1.120,-5.985,3.359,0.595,1720995
0.145,0.032,-1.117,-5.939,3.069,0.595,1725006
0.146,0.035,-1.123,-6.046,2.779,0.290,1729017
0.151,0.037,-1.109,-6.458,2.840,0.214,1733038
0.151,0.034,-1.110,-6.656,2.412,-0.031,1737049
0.151,0.040,-1.114,-6.656,1.802,-0.076,1741060
0.160,0.035,-1.118,-6.672,1.756,-0.183,1745071
0.156,0.041,-1.110,-6.702,1.328,-0.443,1749082
0.154,0.035,-1.126,-6.870,1.282,0.031,1753094
0.146,0.037,-1.113,-6.840,1.069,-0.275,1757105
0.145,0.045,-1.114,-6.885,0.931,-0.061,1761117
0.143,0.041,-1.119,-6.687,1.267,-0.183,1765127
0.151,0.042,-1.119,-6.473,1.267,-0.290,1769138
0.138,0.040,-1.115,-6.137,1.634,-0.198,1773148
0.140,0.047,-1.115,-5.878,1.603,-0.397,1777160
0.143,0.038,-1.123,-5.725,1.466,-0.092,1781170
0.139,0.039,-1.120,-5.496,1.328,-0.229,1785181
0.149,0.037,-1.112,-5.649,1.282,-0.290,1789193
0.152,0.037,-1.122,-5.756,1.160,-0.305,1793213
0.146,0.039,-1.125,-5.847,1.389,-0.305,1797224
0.143,0.043,-1.120,-5.664,1.374,-0.214,1801235
0.150,0.043,-1.117,-5.374,1.603,-0.305,1805246
0.136,0.036,-1.121,-5.145,1.405,-0.260,1809257
0.147,0.042,-1.118,-5.313,1.313,-0.305,1813277
0.148,0.039,-1.115,-5.389,1.115,-0.412,1817289
0.157,0.040,-1.115,-5.420,0.962,-0.366,1821300
0.158,0.041,-1.121,-5.359,0.824,-0.458,1825312
0.148,0.035,-1.122,-5.359,0.595,-0.504,1829323
0.152,0.046,-1.119,-5.176,0.473,-0.687,1833341
0.150,0.041,-1.116,-5.496,0.107,-0.626,1837351
0.151,0.041,-1.124,-5.466,0.061,-0.779,1841362
0.153,0.040,-1.121,-5.542,0.000,-0.824,1845373
0.141,0.036,-1.117,-5.954,0.107,-0.504,1849384
0.135,0.038,-1.108,-6.076,0.504,-0.565,1853395
0.138,0.037,-1.115,-5.954,0.870,-0.397,1857407
0.135,0.047,-1.109,-5.466,1.298,-0.397,1861418
0.131,0.044,-1.120,-5.328,1.344,-0.260,1865429
0.137,0.048,-1.117,-5.237,1.756,-0.107,1869440
0.141,0.043,-1.120,-5.160,2.107,-0.183,1873452
0.146,0.051,-1.119,-5.389,2.046,0.168,1877463
0.148,0.038,-1.121,-5.176,2.000,0.076,1881475
0.148,0.035,-1.124,-4.992,1.832,-0.061,1885486
0.154,0.037,-1.122,-4.748,1.344,-0.061,1889497
0.159,0.039,-1.121,-4.733,0.687,-0.244,1893508
0.159,0.045,-1.130,-4.702,0.748,-0.382,1897519
0.153,0.040,-1.117,-4.656,0.260,-0.275,1901530
0.149,0.041,-1.120,-4.733,0.229,-0.489,1905541
0.144,0.041,-1.110,-4.855,0.489,-0.336,1909552
0.141,0.044,-1.114,-4.672,0.687,-0.244,1913567
0.135,0.037,-1.117,-4.473,0.916,-0.198,1917578
0.142,0.038,-1.109,-4.580,1.115,-0.153,1921589
0.141,0.043,-1.109,-4.489,1.328,0.046,1925600
0.138,0.038,-1.115,-4.641,1.466,-0.031,1929611
0.144,0.037,-1.112,-4.885,1.756,0.046,1933631
0.141,0.038,-1.114,-4.947,1.786,0.046,1937642
0.141,0.038,-1.121,-5.176,2.198,-0.061,1941653
0.142,0.038,-1.120,-4.992,1.908,-0.107,1945665
0.143,0.038,-1.118,-4.885,1.466,-0.107,1949676
0.150,0.040,-1.118,-4.977,1.481,-0.183,1953697
0.148,0.036,-1.123,-5.038,1.313,-0.366,1957708
0.142,0.040,-1.115,-5.206,1.099,-0.229,1961719
0.145,0.050,-1.125,-5.130,1.191,-0.183,1965730
0.149,0.043,-1.115,-4.901,1.130,-0.168,1969741
0.146,0.043,-1.114,-4.763,0.977,-0.504,1973752
0.144,0.040,-1.115,-4.504,0.992,-0.366,1977763
0.137,0.040,-1.112,-4.611,0.977,-0.366,1981774
0.142,0.039,-1.110,-4.794,1.069,-0.061,1985785
0.149,0.039,-1.111,-5.008,1.435,-0.214,1989796
0.142,0.031,-1.116,-5.160,1.435,-0.031,1993806
0.136,0.037,-1.115,-5.099,1.649,-0.122,1997817
0.145,0.040,-1.118,-5.115,1.756,-0.061,2001828
