acc_x,acc_y,acc_z,gyro_x,gyro_y,gyro_z,time
0.142,-0.032,-1.135,-3.649,0.962,0.061,0
0.146,-0.031,-1.142,-3.542,-0.412,-0.061,4051
0.136,-0.029,-1.142,-3.344,-0.885,-0.183,8064
0.140,-0.031,-1.138,-3.130,-1.252,-0.427,12075
0.128,-0.026,-1.142,-3.053,-1.267,-0.504,16086
0.121,-0.029,-1.135,-3.206,-1.282,-0.824,20097
0.119,-0.033,-1.143,-3.160,-1.008,-1.252,24108
0.117,-0.032,-1.140,-3.282,-0.626,-1.298,28119
0.115,-0.036,-1.145,-3.405,-0.229,-1.252,32130
0.106,-0.032,-1.142,-3.771,-0.031,-1.130,36141
0.106,-0.031,-1.145,-3.634,0.595,-0.947,40152
0.104,-0.023,-1.152,-3.740,0.794,-1.023,44163
0.108,-0.029,-1.151,-3.847,0.595,-0.687,48171
0.107,-0.029,-1.142,-3.710,0.595,-0.626,52183
0.115,-0.040,-1.156,-3.954,0.153,-0.443,56193
0.111,-0.025,-1.151,-3.786,0.275,-0.198,60204
0.115,-0.036,-1.148,-3.679,0.321,-0.336,64215
0.111,-0.029,-1.160,-3.435,0.702,-0.244,68227
0.109,-0.031,-1.152,-3.099,0.870,-0.214,72238
0.113,-0.036,-1.156,-3.038,1.176,-0.183,76249
0.119,-0.037,-1.154,-3.053,1.023,-0.534,80260
0.128,-0.039,-1.154,-3.176,0.809,-0.351,84271
0.131,-0.038,-1.161,-3.588,0.580,-0.687,88283
0.139,-0.042,-1.163,-3.893,0.000,-0.412,92294
0.136,-0.039,-1.159,-3.969,-0.107,-0.763,96305
0.135,-0.034,-1.154,-4.534,-0.336,-0.611,100316
0.130,-0.041,-1.156,-5.023,0.321,-0.702,104327
0.119,-0.047,-1.161,-5.832,0.168,-0.626,108339
0.122,-0.041,-1.161,-6.351,0.855,-0.565,112350
0.122,-0.036,-1.160,-6.794,1.237,-0.870,116361
0.128,-0.043,-1.151,-7.038,1.008,-0.626,120372
0.133,-0.039,-1.155,-7.206,0.824,-0.840,124383
0.136,-0.032,-1.154,-7.145,0.336,-1.069,128394
0.134,-0.027,-1.146,-6.565,-0.260,-1.481,132405
0.139,-0.029,-1.144,-6.290,-0.901,-1.969,136416
0.125,-0.036,-1.155,-6.489,-0.885,-1.893,140427
0.116,-0.038,-1.145,-6.275,-0.931,-1.542,144438
0.113,-0.036,-1.142,-5.649,-0.718,-1.450,148449
0.113,-0.030,-1.127,-5.710,-0.794,-1.450,152460
0.118,-0.032,-1.122,-5.359,-0.595,-1.145,156471
0.118,-0.034,-1.134,-5.756,-0.733,-0.550,160482
0.106,-0.041,-1.138,-5.588,-0.992,-0.443,164493
0.115,-0.039,-1.140,-5.496,-0.855,-0.107,168504
0.111,-0.036,-1.136,-5.573,-1.008,-0.275,172515
0.114,-0.051,-1.147,-5.527,-0.489,-0.458,176526
0.115,-0.044,-1.128,-5.573,-0.366,-0.611,180537
0.121,-0.042,-1.133,-5.496,-0.397,-0.687,184548
0.120,-0.044,-1.123,-5.573,-0.366,-0.992,188558
0.133,-0.044,-1.134,-5.313,-0.336,-1.313,192570
0.134,-0.044,-1.115,-4.931,-0.885,-1.603,196580
0.141,-0.039,-1.117,-4.702,-1.481,-1.893,200591
0.135,-0.030,-1.115,-4.794,-1.405,-1.954,204602
0.114,-0.037,-1.125,-4.595,-1.267,-1.557,208614
0.116,-0.039,-1.112,-4.427,-1.160,-1.435,212625
0.115,-0.037,-1.109,-4.229,-0.504,-1.649,216636
0.115,-0.036,-1.116,-4.244,-0.672,-1.832,220647
0.114,-0.047,-1.116,-4.229,-0.473,-1.344,224658
0.113,-0.043,-1.116,-4.534,-0.427,-1.328,228670
0.109,-0.050,-1.120,-4.336,-0.885,-0.840,232690
0.109,-0.042,-1.123,-4.183,-1.038,-0.916,236701
0.113,-0.043,-1.123,-4.168,-0.794,-1.115,240712
0.115,-0.041,-1.120,-3.924,-1.496,-1.206,244723
0.117,-0.030,-1.119,-3.832,-1.511,-1.069,248735
0.109,-0.037,-1.117,-3.695,-1.679,-0.901,252746
0.110,-0.028,-1.117,-3.405,-2.061,-0.611,256757
0.114,-0.033,-1.111,-3.435,-1.954,-0.458,260768
0.110,-0.025,-1.113,-3.130,-1.725,-0.321,264779
0.114,-0.032,-1.125,-3.252,-1.481,-0.092,268792
0.115,-0.042,-1.117,-3.282,-0.855,0.275,272803
0.115,-0.045,-1.123,-3.374,-0.611,0.076,276814
0.117,-0.046,-1.118,-3.634,-0.351,-0.092,280825
0.118,-0.045,-1.119,-4.168,-0.061,-0.275,284836
0.110,-0.048,-1.116,-4.687,0.305,-0.031,288848
0.118,-0.046,-1.119,-5.099,0.427,-0.107,292858
0.122,-0.040,-1.129,-5.618,1.221,-0.092,296869
0.126,-0.047,-1.128,-5.985,1.359,0.015,300880
0.121,-0.045,-1.120,-6.366,1.374,0.153,304891
0.128,-0.042,-1.128,-6.702,1.298,0.183,308902
0.137,-0.042,-1.124,-7.053,1.176,-0.046,312914
0.131,-0.047,-1.124,-7.435,0.901,-0.015,316924
0.123,-0.033,-1.115,-7.374,0.550,-0.321,320935
0.115,-0.030,-1.112,-7.282,0.458,-0.336,324946
0.128,-0.034,-1.119,-7.359,0.061,-0.809,328957
0.128,-0.030,-1.110,-7.145,-0.168,-0.962,332977
0.123,-0.023,-1.106,-6.947,-0.641,-0.901,336988
0.116,-0.027,-1.109,-6.748,-0.977,-0.748,340999
0.118,-0.024,-1.105,-6.641,-1.130,-0.916,345011
0.117,-0.028,-1.098,-6.183,-0.885,-0.702,349022
0.112,-0.027,-1.111,-5.985,-0.947,-0.595,353042
0.114,-0.029,-1.110,-5.725,-0.992,-0.641,357053
0.107,-0.025,-1.110,-5.511,-0.504,-0.748,361064
0.103,-0.025,-1.105,-5.160,0.137,-0.779,365075
0.100,-0.020,-1.105,-4.748,1.130,-0.855,369087
0.101,-0.022,-1.115,-4.458,1.695,-0.855,373100
0.111,-0.025,-1.108,-4.382,2.336,-0.947,377111
0.107,-0.035,-1.115,-4.458,2.366,-1.145,381122
0.124,-0.040,-1.122,-4.473,2.718,-1.160,385133
0.118,-0.038,-1.112,-4.321,2.748,-1.389,389144
0.109,-0.031,-1.118,-4.534,2.626,-1.176,393157
0.118,-0.030,-1.119,-4.687,2.321,-1.221,397168
0.101,-0.035,-1.117,-4.534,2.504,-1.267,401179
0.105,-0.035,-1.123,-4.427,2.382,-1.298,405190
0.115,-0.026,-1.116,-4.458,1.939,-1.496,409201
0.124,-0.035,-1.118,-4.550,1.282,-1.588,413222
0.123,-0.043,-1.125,-4.641,0.626,-1.420,417233
0.119,-0.037,-1.106,-4.458,-0.046,-1.588,421244
0.116,-0.038,-1.110,-4.290,-0.672,-1.710,425256
0.107,-0.039,-1.122,-4.412,-0.824,-1.649,429267
0.100,-0.041,-1.128,-4.519,-0.153,-1.557,433288
0.098,-0.041,-1.124,-4.366,0.351,-1.603,437299
0.089,-0.038,-1.114,-4.122,1.328,-1.679,441311
0.098,-0.032,-1.119,-3.756,1.603,-1.542,445322
0.107,-0.039,-1.121,-3.710,2.260,-1.389,449333
0.106,-0.052,-1.119,-3.863,2.427,-1.527,453344
0.117,-0.049,-1.124,-4.382,2.351,-1.496,457355
0.102,-0.039,-1.120,-4.427,2.626,-1.420,461366
0.107,-0.042,-1.127,-4.687,2.580,-0.977,465378
0.096,-0.034,-1.135,-4.916,2.855,-1.145,469389
0.097,-0.045,-1.121,-5.038,2.992,-1.191,473400
0.109,-0.052,-1.127,-5.252,2.565,-1.374,477411
0.114,-0.049,-1.124,-5.634,2.443,-1.237,481422
0.117,-0.055,-1.130,-6.076,2.061,-1.573,485433
0.118,-0.052,-1.125,-6.153,1.542,-1.664,489444
0.122,-0.043,-1.126,-5.924,0.977,-1.802,493455
0.130,-0.041,-1.137,-6.336,0.565,-1.740,497466
0.125,-0.047,-1.127,-6.137,0.183,-1.679,501477
0.120,-0.051,-1.129,-6.015,-0.214,-1.267,505488
0.121,-0.048,-1.127,-5.725,-0.458,-1.405,509499
0.117,-0.043,-1.124,-5.511,-1.084,-1.206,513509
0.125,-0.044,-1.127,-5.527,-1.115,-0.977,517521
0.116,-0.049,-1.123,-5.191,-1.298,-0.962,521531
0.112,-0.044,-1.120,-5.221,-1.069,-1.115,525542
0.109,-0.043,-1.127,-5.053,-1.176,-1.008,529553
0.111,-0.044,-1.116,-4.916,-0.763,-1.099,533564
0.103,-0.040,-1.121,-4.870,-0.153,-1.267,537575
0.103,-0.038,-1.117,-4.992,0.382,-1.038,541586
0.113,-0.037,-1.115,-4.779,0.840,-1.313,545597
0.112,-0.042,-1.118,-4.702,1.038,-1.374,549608
0.122,-0.040,-1.116,-4.519,1.313,-1.649,553628
0.123,-0.047,-1.124,-4.550,1.038,-1.863,557639
0.124,-0.049,-1.118,-4.672,0.809,-2.031,561650
0.113,-0.045,-1.115,-4.534,0.519,-2.107,565661
0.110,-0.047,-1.117,-4.397,0.061,-2.137,569672
0.112,-0.044,-1.122,-4.672,-0.260,-1.893,573693
0.104,-0.051,-1.120,-4.504,-0.397,-1.924,577704
0.095,-0.044,-1.122,-4.137,-0.794,-1.802,581715
0.097,-0.045,-1.108,-4.153,-1.115,-1.679,585726
0.089,-0.046,-1.128,-4.168,-1.115,-1.649,589738
0.086,-0.045,-1.128,-3.924,-0.855,-1.405,593749
0.077,-0.046,-1.129,-3.786,-0.076,-1.115,597760
0.078,-0.050,-1.131,-4.015,0.519,-0.870,601771
0.078,-0.048,-1.135,-3.756,1.282,-0.397,605782
0.088,-0.046,-1.145,-3.863,1.939,-0.305,609793
0.092,-0.051,-1.136,-3.939,2.412,-0.214,613803
0.094,-0.050,-1.136,-3.817,2.244,0.260,617814
0.105,-0.046,-1.141,-3.740,1.939,0.290,621825
0.109,-0.040,-1.139,-3.802,1.664,0.321,625836
0.116,-0.045,-1.152,-3.679,0.794,0.656,629847
0.114,-0.045,-1.144,-3.511,0.504,0.458,633867
0.122,-0.057,-1.152,-3.756,-0.092,-0.015,637879
0.116,-0.056,-1.150,-4.000,-0.687,-0.382,641890
0.113,-0.054,-1.150,-4.076,-0.916,-0.656,645902
0.110,-0.047,-1.156,-4.198,-0.947,-1.008,649916
0.107,-0.051,-1.152,-4.534,-0.473,-1.298,653927
0.098,-0.047,-1.145,-5.115,-0.229,-0.824,657939
0.091,-0.054,-1.146,-5.679,-0.214,-0.519,661950
0.095,-0.053,-1.145,-5.969,0.336,-0.244,665962
0.089,-0.044,-1.145,-6.000,0.565,0.153,669973
0.080,-0.048,-1.141,-6.122,0.748,0.519,673984
0.074,-0.042,-1.139,-6.229,1.344,1.038,677996
0.072,-0.040,-1.134,-6.198,1.924,1.573,682007
0.074,-0.038,-1.144,-5.817,2.458,1.817,686018
0.094,-0.046,-1.133,-5.710,2.443,2.275,690029
0.097,-0.045,-1.136,-5.527,2.397,2.427,694040
0.101,-0.049,-1.131,-5.588,2.260,2.855,698052
0.107,-0.046,-1.135,-5.618,1.893,2.824,702063
0.112,-0.045,-1.137,-5.176,1.557,2.336,706074
0.124,-0.043,-1.127,-5.359,1.542,1.832,710085
0.113,-0.041,-1.138,-5.481,1.756,1.588,714096
0.120,-0.049,-1.138,-5.908,2.076,1.817,718107
0.106,-0.047,-1.137,-5.908,2.779,1.588,722118
0.111,-0.034,-1.135,-6.092,3.405,1.267,726129
0.118,-0.034,-1.142,-6.183,3.603,1.160,730140
0.123,-0.044,-1.146,-6.626,3.573,1.053,734151
0.121,-0.044,-1.141,-6.885,3.221,1.008,738160
0.122,-0.046,-1.132,-7.084,2.611,0.779,742171
0.116,-0.039,-1.128,-7.206,2.015,0.534,746182
0.112,-0.044,-1.129,-7.145,1.038,0.534,750193
0.121,-0.037,-1.129,-7.527,0.382,0.641,754204
0.116,-0.037,-1.136,-7.252,-0.092,0.733,758218
0.114,-0.035,-1.120,-6.977,-0.458,0.565,762229
0.107,-0.034,-1.118,-6.809,-0.305,0.779,766240
0.092,-0.029,-1.121,-6.351,-0.519,0.672,770251
0.099,-0.033,-1.118,-5.756,-0.534,0.733,774262
0.105,-0.030,-1.111,-5.160,-0.122,0.641,778274
0.091,-0.033,-1.125,-4.733,0.397,0.656,782284
0.096,-0.033,-1.114,-4.366,0.962,0.763,786296
0.102,-0.030,-1.126,-3.786,1.160,0.641,790306
0.115,-0.040,-1.115,-3.969,1.176,0.748,794317
0.122,-0.043,-1.132,-3.832,0.336,1.206,798330
0.124,-0.042,-1.130,-3.832,-0.412,1.084,802341
0.126,-0.049,-1.134,-4.305,-1.176,1.099,806353
0.124,-0.055,-1.128,-4.580,-1.786,0.748,810363
0.120,-0.052,-1.129,-4.611,-2.046,0.305,814374
0.116,-0.048,-1.128,-4.962,-2.046,0.092,818385
0.115,-0.049,-1.133,-5.130,-1.832,-0.290,822396
0.106,-0.042,-1.130,-5.328,-0.977,-0.321,826407
0.103,-0.035,-1.132,-5.130,-0.244,-0.275,830418
0.107,-0.033,-1.117,-5.038,0.473,-0.382,834429
0.105,-0.032,-1.121,-4.901,1.084,-0.198,838440
0.108,-0.035,-1.117,-4.901,1.863,0.397,842451
0.104,-0.033,-1.124,-4.840,2.107,0.672,846463
0.102,-0.036,-1.117,-4.840,2.412,1.023,850473
0.097,-0.044,-1.124,-4.855,2.458,1.466,854484
0.108,-0.035,-1.127,-4.901,1.985,1.389,858495
0.105,-0.038,-1.112,-4.534,1.588,1.710,862506
0.112,-0.039,-1.105,-4.550,0.916,1.740,866518
0.118,-0.041,-1.121,-4.275,-0.122,1.603,870529
0.125,-0.037,-1.126,-4.244,-1.389,1.298,874540
0.133,-0.040,-1.118,-4.290,-2.046,0.992,878548
0.127,-0.040,-1.120,-4.076,-2.763,0.870,882559
0.129,-0.037,-1.124,-3.939,-3.206,0.565,886570
0.123,-0.041,-1.120,-4.305,-3.206,0.122,890581
0.114,-0.040,-1.112,-4.260,-2.870,-0.046,894592
0.113,-0.049,-1.118,-4.519,-2.015,-0.046,898604
0.108,-0.039,-1.120,-4.550,-1.038,-0.260,902615
0.102,-0.037,-1.113,-4.672,-0.168,-0.244,906626
0.100,-0.033,-1.122,-4.824,0.412,-0.031,910637
0.107,-0.037,-1.127,-4.763,1.145,-0.168,914648
0.104,-0.035,-1.120,-4.748,1.603,-0.183,918660
0.105,-0.031,-1.128,-4.626,1.298,0.031,922681
0.107,-0.029,-1.122,-4.382,0.870,-0.092,926692
0.117,-0.021,-1.124,-4.000,0.412,-0.305,930704
0.122,-0.031,-1.125,-3.481,-0.412,0.046,934715
0.121,-0.030,-1.111,-3.206,-1.267,-0.046,938726
0.129,-0.030,-1.128,-3.053,-1.725,-0.046,942741
0.107,-0.037,-1.128,-2.809,-2.244,0.046,946753
0.098,-0.032,-1.123,-2.382,-2.153,0.000,950764
0.092,-0.031,-1.121,-2.198,-1.328,-0.137,954775
0.100,-0.029,-1.125,-1.786,-0.458,-0.031,958786
0.093,-0.036,-1.131,-2.000,0.000,-0.168,962797
0.098,-0.043,-1.123,-1.969,0.565,0.443,966808
0.098,-0.045,-1.129,-2.641,0.305,0.855,970820
0.101,-0.051,-1.129,-3.053,0.519,0.595,974831
0.104,-0.043,-1.136,-3.282,0.550,0.794,978842
0.096,-0.036,-1.132,-3.817,0.473,0.718,982852
0.103,-0.041,-1.129,-4.229,0.382,0.763,986863
0.108,-0.051,-1.140,-4.702,0.397,0.702,990874
0.109,-0.050,-1.141,-4.977,0.336,0.275,994886
0.109,-0.044,-1.141,-5.038,0.031,0.229,998897
0.115,-0.040,-1.141,-5.145,-0.412,-0.153,1002906
0.116,-0.041,-1.131,-5.008,-0.260,-0.351,1006917
0.114,-0.040,-1.136,-5.099,-0.779,-0.137,1010928
0.115,-0.042,-1.142,-4.702,-0.824,-0.015,1014939
0.105,-0.036,-1.143,-4.947,-1.130,0.122,1018950
0.106,-0.042,-1.134,-4.931,-1.328,0.275,1022970
0.099,-0.041,-1.130,-4.916,-1.053,0.473,1026981
0.097,-0.045,-1.128,-4.977,-0.565,0.275,1030992
0.093,-0.040,-1.130,-5.099,-0.550,0.473,1035003
0.093,-0.047,-1.132,-5.160,0.076,-0.061,1039014
0.080,-0.037,-1.128,-5.588,0.763,-0.046,1043035
0.090,-0.042,-1.127,-5.802,1.023,-0.290,1047046
0.091,-0.046,-1.129,-5.832,1.481,-0.092,1051057
0.092,-0.041,-1.136,-6.260,1.695,0.260,1055068
0.091,-0.046,-1.132,-6.779,2.076,0.275,1059079
0.094,-0.040,-1.133,-6.763,2.137,0.321,1063091
0.106,-0.025,-1.130,-6.641,1.557,0.366,1067102
0.105,-0.033,-1.129,-6.580,1.206,0.626,1071113
0.109,-0.029,-1.134,-6.229,0.840,0.641,1075124
0.108,-0.031,-1.133,-5.878,0.473,0.748,1079135
0.117,-0.026,-1.129,-5.511,0.183,0.519,1083147
0.114,-0.024,-1.129,-5.450,-0.198,0.534,1087158
0.120,-0.033,-1.128,-5.450,-0.397,0.198,1091170
0.118,-0.036,-1.127,-5.527,-0.687,0.061,1095180
0.102,-0.043,-1.123,-5.908,-0.351,-0.046,1099191
0.108,-0.032,-1.129,-6.000,-0.183,-0.351,1103211
0.108,-0.028,-1.119,-5.878,0.656,-0.626,1107222
0.104,-0.033,-1.121,-5.969,1.405,-0.641,1111233
0.105,-0.024,-1.124,-5.924,1.481,-0.489,1115244
0.109,-0.032,-1.124,-6.076,1.985,-0.870,1119255
0.117,-0.027,-1.125,-5.878,1.802,-0.779,1123274
0.122,-0.037,-1.119,-5.634,1.679,-1.176,1127285
0.121,-0.031,-1.119,-5.802,1.115,-1.328,1131296
0.117,-0.030,-1.117,-5.679,0.672,-1.344,1135307
0.115,-0.026,-1.124,-5.313,0.321,-1.267,1139318
0.106,-0.021,-1.116,-5.038,0.153,-1.206,1143336
0.101,-0.021,-1.125,-4.977,0.137,-1.221,1147348
0.100,-0.016,-1.124,-4.855,0.183,-1.405,1151358
0.101,-0.023,-1.114,-4.214,0.458,-0.992,1155369
0.092,-0.023,-1.116,-3.847,0.748,-0.977,1159381
0.099,-0.032,-1.118,-3.939,0.977,-0.611,1163392
0.096,-0.037,-1.111,-3.878,1.557,-0.641,1167403
0.097,-0.038,-1.126,-3.969,1.450,-0.580,1171414
0.106,-0.032,-1.120,-3.847,1.084,-0.595,1175425
0.099,-0.034,-1.116,-3.893,1.084,-0.672,1179436
0.092,-0.035,-1.128,-4.015,0.992,-0.626,1183447
0.101,-0.036,-1.129,-4.366,1.008,-0.427,1187458
0.102,-0.038,-1.121,-4.565,0.885,-0.672,1191469
0.108,-0.039,-1.118,-4.321,0.412,-0.748,1195481
0.108,-0.038,-1.123,-4.260,0.107,-0.763,1199492
0.104,-0.038,-1.116,-4.290,-0.061,-0.595,1203502
0.109,-0.031,-1.125,-4.244,-0.046,-0.855,1207513
0.100,-0.040,-1.117,-4.351,-0.092,-0.595,1211524
0.095,-0.035,-1.119,-3.878,0.031,-0.611,1215535
0.094,-0.035,-1.114,-4.107,0.580,-0.763,1219546
0.083,-0.037,-1.115,-4.061,1.023,-0.840,1223556
0.087,-0.041,-1.117,-3.908,1.527,-0.794,1227567
0.089,-0.048,-1.121,-4.000,2.519,-0.870,1231578
0.094,-0.051,-1.123,-4.137,2.611,-0.672,1235589
0.091,-0.042,-1.115,-4.137,3.206,-0.550,1239600
0.093,-0.035,-1.112,-4.137,3.588,-0.244,1243620
0.085,-0.045,-1.119,-3.939,3.740,-0.382,1247631
0.097,-0.041,-1.129,-3.893,3.695,-0.260,1251642
0.103,-0.047,-1.130,-4.076,3.481,-0.153,1255653
0.106,-0.044,-1.136,-4.031,2.901,-0.168,1259664
0.111,-0.041,-1.130,-3.802,2.534,-0.321,1263685
0.111,-0.042,-1.136,-3.695,2.015,-0.443,1267697
0.110,-0.039,-1.134,-3.466,1.664,-0.092,1271708
0.111,-0.048,-1.132,-3.130,1.267,-0.397,1275719
0.120,-0.048,-1.134,-3.267,0.779,-0.366,1279730
0.114,-0.051,-1.130,-3.023,0.229,-0.626,1283743
0.110,-0.047,-1.125,-3.221,0.107,-0.366,1287754
0.107,-0.049,-1.136,-3.344,-0.580,-0.611,1291765
0.113,-0.048,-1.140,-3.527,-0.733,-0.931,1295777
0.111,-0.053,-1.136,-3.679,-0.962,-0.947,1299788
0.097,-0.058,-1.127,-3.740,-1.038,-1.313,1303800
0.094,-0.054,-1.139,-4.046,-0.809,-1.160,1307810
0.086,-0.058,-1.141,-4.626,0.183,-0.947,1311821
0.077,-0.055,-1.149,-4.702,0.626,-0.931,1315832
0.081,-0.051,-1.142,-5.420,1.298,-0.504,1319843
0.082,-0.050,-1.142,-5.221,1.527,-0.061,1323864
0.081,-0.049,-1.134,-5.603,1.954,0.458,1327875
0.078,-0.045,-1.140,-5.725,2.000,0.824,1331886
0.094,-0.052,-1.144,-5.878,2.611,0.779,1335898
0.091,-0.054,-1.135,-6.046,2.885,0.687,1339917
0.095,-0.054,-1.139,-5.985,3.206,0.534,1343928
0.099,-0.048,-1.140,-6.198,3.435,0.198,1347939
0.103,-0.049,-1.143,-6.321,3.282,0.107,1351950
0.111,-0.048,-1.129,-6.076,3.313,0.061,1355962
0.117,-0.039,-1.128,-5.878,2.947,0.076,1359973
0.117,-0.046,-1.126,-5.511,2.840,0.107,1363984
0.115,-0.050,-1.134,-5.359,2.336,0.198,1367996
0.111,-0.043,-1.141,-5.221,2.260,0.061,1372007
0.108,-0.042,-1.123,-4.947,1.649,0.397,1376018
0.108,-0.041,-1.123,-5.099,1.176,0.214,1380029
0.106,-0.060,-1.121,-5.435,1.130,0.061,1384040
0.108,-0.057,-1.126,-5.817,0.947,-0.092,1388052
0.102,-0.050,-1.123,-5.908,0.672,-0.092,1392063
0.101,-0.059,-1.120,-6.443,0.290,-0.092,1396074
0.101,-0.050,-1.124,-6.748,0.412,-0.107,1400085
0.092,-0.050,-1.125,-7.282,0.198,-0.290,1404096
0.094,-0.042,-1.130,-7.206,0.229,-0.092,1408107
0.093,-0.039,-1.120,-6.947,0.168,0.031,1412118
0.100,-0.033,-1.128,-6.824,0.427,-0.031,1416129
0.101,-0.035,-1.126,-6.321,0.275,-0.336,1420140
0.109,-0.038,-1.119,-5.725,0.076,0.046,1424151
0.099,-0.035,-1.120,-5.298,-0.198,-0.122,1428160
0.100,-0.039,-1.114,-4.901,-0.031,0.061,1432171
0.092,-0.038,-1.118,-4.260,0.046,0.046,1436182
0.093,-0.033,-1.126,-3.786,0.260,0.137,1440193
0.092,-0.039,-1.117,-3.588,0.290,0.427,1444204
0.091,-0.042,-1.118,-3.511,0.595,0.748,1448218
0.088,-0.052,-1.118,-3.496,0.748,1.115,1452229
0.089,-0.047,-1.121,-3.695,1.206,1.053,1456240
0.083,-0.055,-1.120,-3.893,1.084,0.885,1460251
0.095,-0.053,-1.123,-4.092,1.191,1.069,1464262
0.101,-0.051,-1.117,-4.229,0.962,0.992,1468274
0.094,-0.044,-1.134,-4.672,1.115,1.038,1472284
0.098,-0.044,-1.136,-4.763,0.794,0.977,1476296
0.108,-0.047,-1.130,-4.885,1.328,0.870,1480306
0.107,-0.044,-1.127,-5.389,0.977,0.550,1484317
0.110,-0.044,-1.124,-5.481,1.282,0.290,1488330
0.104,-0.037,-1.130,-5.771,1.267,0.214,1492341
0.109,-0.035,-1.130,-5.710,0.870,0.351,1496353
0.110,-0.037,-1.123,-5.786,1.298,0.366,1500363
0.104,-0.033,-1.133,-5.893,0.962,0.397,1504374
0.104,-0.036,-1.125,-6.000,1.221,0.779,1508385
0.096,-0.039,-1.123,-5.985,1.725,0.641,1512396
0.101,-0.037,-1.128,-6.107,2.015,0.519,1516407
0.100,-0.031,-1.132,-5.710,2.260,0.076,1520418
0.103,-0.034,-1.125,-5.771,2.626,-0.076,1524429
0.109,-0.032,-1.129,-6.244,2.672,-0.260,1528440
0.106,-0.030,-1.130,-6.366,2.656,-0.336,1532451
0.110,-0.035,-1.133,-6.382,3.221,-0.275,1536463
0.105,-0.022,-1.125,-6.214,3.511,-0.214,1540473
0.116,-0.028,-1.124,-5.908,3.145,-0.198,1544484
0.117,-0.018,-1.120,-5.603,2.794,-0.321,1548495
0.121,-0.026,-1.121,-5.252,2.015,-0.397,1552506
0.120,-0.027,-1.124,-5.130,1.023,-0.656,1556518
0.117,-0.031,-1.120,-4.931,0.458,-0.733,1560529
0.108,-0.029,-1.126,-4.473,-0.473,-0.763,1564540
0.099,-0.030,-1.118,-4.382,-0.473,-0.718,1568548
0.098,-0.031,-1.124,-4.382,-0.580,-0.550,1572559
0.094,-0.040,-1.117,-4.443,-0.534,-0.458,1576570
0.090,-0.038,-1.120,-4.565,-0.519,-0.305,1580581
0.091,-0.038,-1.119,-4.595,-0.382,-0.412,1584592
0.096,-0.036,-1.116,-4.962,-0.183,-0.458,1588604
0.088,-0.040,-1.121,-5.542,0.214,-0.748,1592615
0.082,-0.038,-1.126,-6.076,0.947,-0.427,1596626
0.080,-0.042,-1.131,-6.336,1.710,-0.382,1600637
0.092,-0.036,-1.128,-6.519,2.260,-0.321,1604648
0.092,-0.033,-1.120,-6.351,2.534,0.015,1608660
0.093,-0.037,-1.130,-6.290,3.206,0.214,1612681
0.089,-0.039,-1.142,-5.969,3.481,0.595,1616692
0.102,-0.035,-1.127,-5.481,3.405,0.305,1620704
0.104,-0.032,-1.129,-5.313,2.992,0.183,1624715
0.112,-0.038,-1.126,-4.947,2.763,-0.092,1628726
0.120,-0.037,-1.133,-4.656,1.878,-0.061,1632741
0.116,-0.041,-1.123,-4.473,1.374,-0.229,1636753
0.120,-0.045,-1.133,-4.809,0.702,-0.702,1640764
0.119,-0.041,-1.113,-5.176,0.168,-0.962,1644775
0.106,-0.045,-1.122,-5.511,-0.183,-1.069,1648786
0.099,-0.045,-1.131,-5.557,0.046,-0.962,1652797
0.098,-0.048,-1.130,-6.000,0.198,-1.237,1656808
0.096,-0.033,-1.131,-6.046,0.947,-1.374,1660820
0.090,-0.045,-1.125,-6.107,1.069,-1.420,1664831
0.093,-0.047,-1.123,-6.122,1.176,-1.221,1668842
0.088,-0.045,-1.127,-5.695,1.664,-0.947,1672852
0.085,-0.040,-1.123,-5.863,1.573,-0.824,1676863
0.091,-0.042,-1.126,-5.695,1.374,-0.870,1680874
0.097,-0.038,-1.123,-5.053,1.206,-0.748,1684886
0.104,-0.040,-1.133,-4.458,0.504,-0.840,1688897
0.098,-0.037,-1.126,-4.260,0.550,-0.641,1692906
0.109,-0.047,-1.127,-3.954,-0.031,-0.962,1696917
0.110,-0.045,-1.131,-3.847,-0.382,-1.405,1700928
0.102,-0.048,-1.135,-3.603,-0.794,-1.573,1704940
0.106,-0.049,-1.136,-3.603,-1.221,-1.664,1708951
0.102,-0.051,-1.126,-3.511,-1.252,-1.634,1712970
0.093,-0.044,-1.132,-3.832,-0.641,-1.496,1716981
0.099,-0.039,-1.136,-3.710,-0.397,-1.374,1720992
0.090,-0.050,-1.131,-3.771,0.092,-1.389,1725003
0.089,-0.052,-1.143,-4.260,0.702,-1.191,1729014
0.090,-0.050,-1.140,-4.641,1.435,-1.374,1733035
0.094,-0.049,-1.158,-4.489,1.786,-1.664,1737046
0.102,-0.052,-1.156,-5.267,1.878,-1.802,1741057
0.094,-0.051,-1.153,-5.664,1.847,-1.939,1745069
0.093,-0.057,-1.159,-6.076,1.786,-1.832,1749080
0.095,-0.055,-1.145,-6.595,1.649,-2.031,1753091
0.100,-0.055,-1.148,-7.115,1.496,-1.832,1757103
0.096,-0.042,-1.149,-7.313,1.191,-1.450,1761113
0.090,-0.047,-1.143,-7.328,0.992,-1.206,1765124
0.088,-0.038,-1.136,-7.237,1.053,-1.145,1769136
0.087,-0.040,-1.143,-6.992,0.931,-1.053,1773147
0.089,-0.039,-1.140,-6.870,0.580,-0.840,1777158
0.093,-0.041,-1.134,-6.473,0.321,-0.641,1781169
0.090,-0.042,-1.140,-6.519,0.275,-0.534,1785180
0.083,-0.048,-1.136,-6.229,0.107,-0.214,1789191
0.085,-0.039,-1.123,-5.878,-0.076,-0.183,1793211
0.081,-0.044,-1.133,-6.137,-0.137,-0.260,1797223
0.087,-0.043,-1.127,-6.153,0.000,0.046,1801233
0.080,-0.049,-1.122,-6.336,0.214,0.107,1805244
0.083,-0.045,-1.131,-6.565,0.382,0.183,1809256
0.083,-0.048,-1.130,-6.412,0.244,0.015,1813275
0.083,-0.049,-1.121,-6.672,0.885,0.076,1817286
0.083,-0.046,-1.129,-6.931,0.718,0.168,1821297
0.092,-0.042,-1.121,-7.084,0.656,0.397,1825308
0.088,-0.038,-1.127,-6.748,0.748,0.458,1829319
0.089,-0.035,-1.126,-6.794,0.779,0.748,1833337
0.078,-0.042,-1.119,-6.977,0.718,0.870,1837349
0.084,-0.044,-1.123,-6.672,0.718,1.099,1841360
0.076,-0.035,-1.125,-6.748,0.427,1.176,1845372
0.088,-0.035,-1.116,-6.183,0.107,1.435,1849383
0.096,-0.032,-1.113,-6.061,0.000,1.267,1853394
0.095,-0.040,-1.124,-5.863,0.107,0.992,1857405
0.091,-0.039,-1.115,-5.817,-0.076,0.779,1861417
0.091,-0.038,-1.110,-5.328,0.076,0.718,1865427
0.092,-0.028,-1.117,-5.450,0.275,0.534,1869438
0.097,-0.035,-1.115,-5.053,0.718,0.473,1873449
0.095,-0.033,-1.109,-4.885,1.160,0.916,1877460
0.096,-0.038,-1.117,-4.565,1.405,1.145,1881471
0.100,-0.025,-1.116,-4.290,1.344,1.069,1885482
0.106,-0.032,-1.110,-4.015,1.710,1.298,1889493
0.112,-0.034,-1.117,-3.832,0.992,1.115,1893504
0.111,-0.040,-1.114,-3.649,1.160,1.206,1897515
0.101,-0.036,-1.123,-3.664,0.702,0.855,1901526
0.109,-0.040,-1.121,-3.435,0.061,0.794,1905537
0.114,-0.041,-1.110,-3.481,-0.275,0.473,1909548
0.110,-0.035,-1.114,-3.679,-0.718,0.260,1913563
0.111,-0.037,-1.110,-3.466,-0.870,-0.092,1917574
0.100,-0.040,-1.125,-4.061,-1.099,-0.153,1921585
0.101,-0.042,-1.129,-4.366,-1.130,-0.153,1925596
0.099,-0.042,-1.117,-4.534,-0.748,-0.244,1929607
0.108,-0.045,-1.122,-4.504,-0.351,-0.336,1933627
0.099,-0.038,-1.128,-4.748,-0.092,-0.290,1937638
0.095,-0.044,-1.126,-4.947,0.534,-0.168,1941649
0.093,-0.044,-1.125,-5.176,0.794,-0.244,1945661
0.088,-0.042,-1.124,-4.885,1.344,-0.198,1949672
0.090,-0.047,-1.132,-4.855,1.771,-0.122,1953692
0.095,-0.036,-1.125,-4.870,2.031,0.015,1957703
0.095,-0.041,-1.133,-4.779,2.382,0.321,1961714
0.090,-0.040,-1.119,-4.672,1.985,0.504,1965725
0.094,-0.032,-1.120,-4.565,2.076,0.885,1969736
0.093,-0.032,-1.140,-4.473,1.908,0.794,1973748
0.089,-0.031,-1.126,-4.290,1.588,1.176,1977759
0.099,-0.034,-1.129,-4.366,1.527,1.237,1981770
0.102,-0.040,-1.126,-4.366,1.435,1.008,1985781
0.098,-0.045,-1.135,-4.260,1.023,1.008,1989792
0.105,-0.045,-1.132,-4.153,0.504,0.641,1993804
0.107,-0.038,-1.139,-4.275,-0.107,0.244,1997814
0.110,-0.045,-1.128,-4.427,-0.885,0.092,2001825
