acc_x,acc_y,acc_z,gyro_x,gyro_y,gyro_z,time
0.149,-0.023,-1.130,-4.427,-0.015,-0.046,0
0.151,-0.024,-1.134,-4.809,0.305,-0.168,4050
0.145,-0.026,-1.135,-5.160,0.656,-0.458,8063
0.150,-0.029,-1.124,-5.160,0.641,-0.382,12074
0.149,-0.027,-1.129,-5.221,0.809,-0.580,16085
0.148,-0.019,-1.121,-5.069,0.947,-0.305,20096
0.139,-0.021,-1.126,-5.221,1.115,-0.198,24107
0.139,-0.017,-1.129,-5.145,1.618,0.260,28117
0.136,-0.019,-1.135,-5.176,1.924,0.748,32128
0.128,-0.012,-1.128,-4.901,2.305,1.084,36139
0.130,-0.012,-1.131,-4.794,2.855,1.664,40151
0.138,-0.018,-1.121,-4.687,2.840,1.954,44162
0.141,-0.017,-1.129,-4.962,2.931,2.305,48170
0.144,-0.022,-1.131,-5.084,2.794,2.489,52181
0.154,-0.030,-1.131,-5.863,2.611,2.046,56192
0.154,-0.026,-1.133,-6.244,2.427,1.908,60203
0.155,-0.026,-1.121,-6.656,2.061,1.405,64214
0.149,-0.020,-1.115,-6.550,2.443,1.527,68226
0.157,-0.015,-1.116,-6.855,2.366,1.282,72237
0.156,-0.011,-1.129,-6.901,3.130,1.130,76249
0.151,-0.013,-1.122,-6.718,3.298,0.870,80259
0.157,-0.019,-1.119,-6.458,3.573,0.855,84270
0.154,-0.012,-1.116,-6.092,3.389,0.519,88281
0.162,-0.014,-1.117,-6.244,3.282,0.443,92292
0.166,-0.010,-1.119,-5.634,3.084,0.351,96303
0.160,-0.014,-1.119,-5.267,2.916,0.305,100315
0.157,-0.006,-1.115,-4.931,2.519,0.061,104326
0.165,-0.009,-1.125,-4.580,2.229,-0.061,108337
0.171,-0.016,-1.129,-4.550,1.481,-0.137,112348
0.168,-0.015,-1.126,-4.046,0.351,-0.275,116360
0.157,-0.011,-1.126,-4.015,-0.473,-0.244,120371
0.154,-0.014,-1.122,-3.450,-1.145,-0.168,124382
0.146,-0.014,-1.128,-3.099,-1.832,-0.168,128393
0.145,-0.019,-1.127,-3.344,-2.290,-0.092,132404
0.147,-0.020,-1.118,-3.405,-2.611,-0.321,136415
0.136,-0.017,-1.123,-3.252,-2.397,-0.260,140426
0.124,-0.022,-1.124,-3.450,-2.153,-0.183,144437
0.123,-0.023,-1.121,-3.588,-1.573,-0.137,148448
0.114,-0.028,-1.127,-3.832,-0.290,-0.076,152460
0.117,-0.027,-1.124,-4.336,0.290,-0.076,156471
0.130,-0.026,-1.125,-4.672,1.115,0.137,160482
0.135,-0.029,-1.127,-4.947,1.313,0.229,164493
0.146,-0.033,-1.132,-5.420,1.573,0.153,168504
0.146,-0.034,-1.131,-6.229,1.557,-0.092,172515
0.156,-0.025,-1.132,-6.534,1.603,0.076,176526
0.158,-0.027,-1.137,-6.794,1.237,-0.290,180537
0.156,-0.028,-1.125,-6.397,0.885,-0.443,184548
0.168,-0.021,-1.136,-6.321,0.794,-0.489,188558
0.164,-0.013,-1.130,-6.214,0.229,-0.473,192570
0.166,-0.006,-1.138,-5.725,-0.305,-0.489,196580
0.166,-0.012,-1.122,-5.496,-0.809,-0.198,200591
0.161,-0.019,-1.120,-4.992,-0.962,-0.198,204602
0.155,-0.010,-1.117,-4.840,-1.466,-0.183,208614
0.148,-0.009,-1.118,-4.519,-1.573,-0.092,212625
0.143,-0.015,-1.121,-4.718,-1.282,0.260,216636
0.137,-0.015,-1.117,-4.763,-0.947,0.351,220647
0.143,-0.010,-1.119,-4.901,-0.534,0.473,224658
0.135,-0.016,-1.116,-5.160,0.321,0.672,228670
0.138,-0.020,-1.112,-5.557,0.885,0.763,232690
0.135,-0.024,-1.115,-5.435,1.496,0.351,236701
0.135,-0.021,-1.118,-5.649,2.198,0.351,240712
0.140,-0.017,-1.107,-5.954,2.321,0.107,244723
0.140,-0.020,-1.118,-6.198,2.656,-0.305,248735
0.140,-0.020,-1.123,-6.244,3.145,-0.458,252746
0.146,-0.020,-1.112,-6.351,3.099,-0.763,256757
0.154,-0.022,-1.122,-6.260,2.931,-0.702,260768
0.152,-0.021,-1.114,-6.321,3.084,-0.992,264779
0.157,-0.015,-1.117,-6.000,2.397,-0.885,268792
0.158,-0.014,-1.119,-5.893,2.153,-1.008,272803
0.156,-0.009,-1.114,-5.542,1.695,-0.718,276814
0.159,-0.013,-1.115,-5.267,1.679,-0.656,280825
0.153,-0.007,-1.118,-5.008,1.160,-0.702,284836
0.154,-0.017,-1.116,-4.687,0.779,-0.779,288848
0.161,-0.012,-1.126,-4.977,0.580,-1.053,292858
0.160,-0.014,-1.126,-4.824,0.061,-1.496,296869
0.149,-0.015,-1.120,-4.992,-0.244,-1.405,300880
0.146,-0.014,-1.120,-4.733,-0.031,-1.344,304891
0.139,-0.016,-1.117,-4.855,0.061,-1.221,308902
0.137,-0.013,-1.121,-4.718,0.718,-1.023,312914
0.134,-0.018,-1.122,-4.748,0.840,-0.840,316924
0.129,-0.015,-1.120,-4.565,1.023,-0.992,320935
0.132,-0.018,-1.125,-4.763,1.466,-0.977,324946
0.133,-0.012,-1.130,-4.366,1.496,-0.702,328957
0.135,-0.009,-1.123,-4.443,1.481,-0.733,332977
0.136,-0.018,-1.129,-4.489,1.710,-0.489,336988
0.130,-0.007,-1.121,-4.336,1.710,-0.290,340999
0.132,-0.014,-1.120,-4.458,1.573,0.046,345011
0.125,-0.018,-1.130,-4.336,1.664,0.046,349022
0.134,-0.017,-1.129,-4.656,1.511,-0.076,353042
0.138,-0.023,-1.128,-5.069,1.679,-0.076,357053
0.137,-0.016,-1.122,-5.160,1.420,-0.107,361064
0.147,-0.021,-1.129,-5.603,1.878,-0.351,365075
0.144,-0.021,-1.130,-5.649,1.802,-0.641,369087
0.151,-0.013,-1.130,-5.695,1.664,-0.489,373100
0.160,-0.016,-1.131,-5.740,1.695,-0.947,377111
0.159,-0.009,-1.121,-5.802,1.588,-1.023,381122
0.154,-0.013,-1.128,-5.588,1.237,-0.931,385133
0.144,-0.005,-1.130,-5.618,1.252,-1.328,389144
0.144,-0.008,-1.130,-5.313,1.053,-1.267,393157
0.150,-0.010,-1.129,-5.481,0.931,-1.237,397168
0.147,-0.012,-1.131,-5.130,0.550,-1.313,401179
0.150,-0.013,-1.138,-4.840,0.076,-1.008,405190
0.138,-0.013,-1.139,-4.824,-0.290,-0.809,409201
0.140,-0.012,-1.136,-4.458,-0.595,-0.489,413222
0.134,-0.007,-1.129,-4.443,-0.626,-0.183,417233
0.140,-0.014,-1.132,-4.473,-0.687,0.031,421244
0.138,-0.017,-1.134,-4.550,-0.763,-0.183,425256
0.132,-0.022,-1.121,-4.656,-0.595,-0.214,429267
0.131,-0.015,-1.133,-4.855,-0.595,-0.351,433288
0.128,-0.024,-1.130,-5.099,0.168,-0.718,437299
0.137,-0.022,-1.132,-5.191,0.427,-0.916,441311
0.133,-0.020,-1.132,-5.252,1.084,-1.099,445322
0.138,-0.013,-1.126,-5.084,1.450,-0.947,449333
0.137,-0.014,-1.140,-5.038,1.679,-0.901,453344
0.138,-0.016,-1.149,-5.282,2.046,-0.534,457355
0.143,-0.013,-1.139,-5.359,1.939,-0.290,461366
0.147,-0.020,-1.135,-5.511,1.786,-0.550,465378
0.152,-0.014,-1.142,-5.603,1.511,-0.351,469389
0.140,-0.021,-1.139,-5.557,1.450,-0.290,473400
0.155,-0.019,-1.138,-5.511,0.595,-0.473,477411
0.156,-0.019,-1.127,-5.420,-0.198,-0.611,481422
0.153,-0.025,-1.137,-5.420,-0.779,-0.595,485433
0.152,-0.020,-1.136,-5.405,-1.160,-1.328,489444
0.150,-0.014,-1.133,-5.420,-1.985,-1.344,493455
0.146,-0.019,-1.136,-5.664,-1.603,-1.389,497466
0.143,-0.014,-1.129,-5.786,-1.542,-1.450,501477
0.139,-0.021,-1.129,-5.786,-1.160,-1.618,505488
0.139,-0.017,-1.132,-5.740,-0.611,-1.679,509499
0.136,-0.011,-1.133,-6.229,-0.137,-1.847,513509
0.140,-0.019,-1.135,-6.366,0.137,-1.924,517521
0.141,-0.019,-1.128,-6.443,0.962,-1.954,521531
0.138,-0.020,-1.133,-6.336,1.038,-1.481,525542
0.135,-0.016,-1.132,-6.611,0.870,-1.435,529553
0.134,-0.005,-1.126,-6.504,1.649,-0.885,533564
0.136,-0.013,-1.132,-6.137,1.298,-0.870,537575
0.139,-0.003,-1.140,-5.908,1.084,-0.626,541586
0.136,-0.012,-1.130,-5.603,0.611,-0.427,545597
0.135,-0.019,-1.121,-5.206,-0.137,-0.061,549608
0.129,-0.016,-1.132,-4.870,-0.443,-0.015,553628
0.132,-0.021,-1.129,-4.870,-0.656,0.168,557639
0.140,-0.019,-1.138,-4.733,-1.038,-0.046,561650
0.138,-0.022,-1.132,-4.977,-1.359,-0.229,565661
0.138,-0.022,-1.141,-5.435,-1.374,-0.489,569672
0.134,-0.022,-1.110,-5.450,-1.618,-0.275,573693
0.136,-0.024,-1.118,-5.802,-1.664,-0.550,577704
0.131,-0.020,-1.121,-6.137,-1.542,-0.229,581715
0.128,-0.017,-1.121,-6.214,-1.466,-0.229,585726
0.125,-0.014,-1.124,-6.137,-1.008,-0.031,589738
0.129,-0.014,-1.126,-6.275,-0.870,0.321,593749
0.135,-0.017,-1.124,-6.336,-0.290,0.153,597760
0.140,-0.019,-1.125,-6.275,-0.351,0.382,601771
0.147,-0.023,-1.125,-6.321,-0.718,-0.107,605782
0.144,-0.013,-1.125,-6.550,-0.885,-0.244,609793
0.151,-0.025,-1.119,-6.397,-1.176,0.000,613803
0.147,-0.014,-1.128,-6.382,-1.176,0.015,617814
0.141,-0.010,-1.130,-6.214,-0.870,0.321,621825
0.139,-0.017,-1.113,-6.244,-0.519,0.931,625836
0.139,-0.015,-1.117,-6.000,0.031,0.718,629847
0.142,-0.014,-1.122,-5.863,-0.046,0.702,633867
0.140,-0.011,-1.123,-5.695,0.198,0.779,637879
0.142,-0.017,-1.122,-5.954,0.489,0.290,641890
0.142,-0.012,-1.121,-5.817,0.550,-0.046,645902
0.138,-0.018,-1.120,-5.740,0.458,0.046,649916
0.149,-0.015,-1.111,-6.031,0.824,-0.031,653927
0.140,-0.007,-1.113,-6.046,0.672,0.275,657939
0.141,-0.000,-1.118,-5.710,0.489,0.595,661950
0.130,-0.008,-1.117,-5.634,1.053,0.840,665962
0.135,-0.011,-1.114,-5.893,1.053,0.824,669973
0.143,-0.011,-1.110,-5.756,0.931,0.702,673984
0.144,-0.020,-1.117,-5.863,0.656,0.336,677996
0.128,-0.014,-1.111,-5.725,0.458,-0.046,682007
0.136,-0.015,-1.118,-5.725,0.595,0.015,686018
0.141,-0.012,-1.102,-5.527,0.992,-0.534,690029
0.129,-0.015,-1.116,-5.374,0.870,0.366,694040
0.153,-0.014,-1.119,-5.420,1.313,-0.137,698052
0.147,-0.005,-1.113,-4.885,2.214,-0.260,702063
0.132,-0.015,-1.118,-5.023,2.107,0.351,706074
0.141,-0.016,-1.113,-4.931,2.290,0.611,710085
0.149,-0.019,-1.119,-4.885,2.366,0.458,714096
0.155,-0.021,-1.116,-5.191,2.168,0.290,718107
0.149,-0.021,-1.124,-5.496,1.252,-0.321,722118
0.142,-0.012,-1.117,-5.863,0.824,-0.412,726129
0.141,-0.020,-1.121,-6.183,0.794,-0.260,730140
0.129,-0.017,-1.110,-6.229,0.901,-0.733,734151
0.127,-0.019,-1.120,-6.229,0.473,-0.885,738160
0.133,-0.009,-1.118,-6.046,0.626,-0.656,742171
0.126,-0.010,-1.129,-6.321,1.298,-0.321,746182
0.123,-0.005,-1.113,-6.122,2.183,0.061,750193
0.122,-0.009,-1.118,-6.321,2.702,0.214,754204
0.126,-0.006,-1.117,-5.863,3.084,0.122,758218
0.130,-0.002,-1.118,-5.603,3.603,0.198,762229
0.143,-0.007,-1.120,-5.466,3.115,0.336,766240
0.145,-0.011,-1.122,-5.176,2.687,0.748,770251
0.139,-0.015,-1.132,-5.176,2.137,0.656,774262
0.153,-0.015,-1.124,-4.870,1.176,0.687,778274
0.151,-0.013,-1.115,-4.565,0.183,0.550,782284
0.152,-0.017,-1.119,-4.198,-0.229,0.305,786296
0.146,-0.022,-1.120,-4.214,-0.916,0.183,790306
0.148,-0.019,-1.120,-4.275,-1.115,-0.443,794317
0.138,-0.019,-1.126,-4.840,-1.084,-0.611,798330
0.144,-0.020,-1.132,-5.053,-0.916,-0.718,802341
0.143,-0.017,-1.123,-5.298,-0.366,-0.702,806353
0.140,-0.015,-1.123,-5.771,0.290,-0.550,810363
0.140,-0.014,-1.118,-5.954,0.504,-0.458,814374
0.130,-0.013,-1.129,-6.076,1.298,-0.305,818385
0.133,-0.014,-1.117,-6.214,1.954,-0.076,822396
0.127,-0.010,-1.121,-6.351,2.931,-0.122,826407
0.134,-0.003,-1.117,-6.122,2.992,0.580,830418
0.141,-0.010,-1.128,-6.061,3.038,0.031,834429
0.148,-0.007,-1.116,-6.015,2.626,0.275,838440
0.150,-0.009,-1.125,-5.954,2.611,0.290,842451
0.147,-0.013,-1.130,-5.679,1.969,0.183,846463
0.150,-0.007,-1.126,-5.573,1.282,0.031,850473
0.151,-0.010,-1.127,-5.328,0.595,-0.153,854484
0.149,-0.006,-1.125,-5.115,-0.092,-0.229,858495
0.152,-0.008,-1.126,-4.565,-0.901,-0.214,862506
0.145,0.003,-1.126,-4.382,-1.084,-0.443,866518
0.132,-0.004,-1.129,-4.107,-1.115,-0.382,870529
0.128,-0.012,-1.118,-4.000,-0.794,-0.519,874540
0.116,-0.021,-1.129,-4.061,-0.366,-0.427,878548
0.119,-0.016,-1.128,-4.366,0.458,-0.351,882559
0.119,-0.021,-1.127,-4.305,1.008,-0.687,886570
0.123,-0.017,-1.129,-4.855,1.511,-0.641,890581
0.117,-0.019,-1.135,-5.099,2.153,-0.626,894592
0.131,-0.025,-1.122,-5.695,2.427,-0.870,898604
0.128,-0.026,-1.128,-5.954,2.931,-0.870,902615
0.131,-0.019,-1.123,-6.260,3.344,-0.824,906626
0.129,-0.015,-1.140,-6.382,3.573,-0.687,910637
0.130,-0.014,-1.130,-6.489,3.695,-0.656,914648
0.133,-0.013,-1.131,-6.687,3.588,-0.687,918660
0.134,-0.007,-1.135,-6.336,4.076,-0.595,922681
0.135,-0.014,-1.135,-5.969,3.420,-0.565,926692
0.143,-0.007,-1.124,-5.786,2.809,-0.687,930704
0.152,-0.011,-1.133,-5.191,2.183,-0.611,934715
0.144,-0.009,-1.132,-4.855,1.313,-0.565,938726
0.136,-0.015,-1.128,-4.550,0.611,-0.336,942741
0.137,-0.015,-1.126,-4.580,0.015,-0.397,946753
0.133,-0.020,-1.129,-4.412,-0.947,-0.382,950764
0.122,-0.018,-1.120,-4.534,-1.069,-0.076,954775
0.123,-0.015,-1.123,-4.214,-0.656,-0.153,958786
0.112,-0.015,-1.125,-4.229,-0.229,0.137,962797
0.105,-0.012,-1.118,-4.260,0.290,0.260,966808
0.112,-0.012,-1.129,-4.336,0.550,0.519,970820
0.126,-0.014,-1.121,-4.107,1.099,0.534,974831
0.130,-0.024,-1.119,-4.336,0.855,0.824,978842
0.127,-0.022,-1.124,-4.382,1.176,0.473,982852
0.134,-0.022,-1.128,-4.305,0.992,0.305,986863
0.132,-0.013,-1.122,-4.519,0.794,0.366,990874
0.137,-0.025,-1.129,-4.916,0.779,0.427,994886
0.137,-0.029,-1.130,-4.870,0.702,0.351,998897
0.154,-0.021,-1.132,-5.160,0.275,0.580,1002906
0.143,-0.020,-1.130,-5.145,0.641,0.565,1006917
0.138,-0.023,-1.127,-5.344,0.702,0.427,1010928
0.138,-0.025,-1.136,-5.511,1.084,0.229,1014939
0.146,-0.023,-1.128,-5.466,1.389,-0.061,1018950
0.139,-0.019,-1.132,-5.817,1.481,-0.122,1022970
0.140,-0.019,-1.130,-5.863,1.634,-0.321,1026981
0.147,-0.015,-1.126,-6.031,1.282,-0.153,1030992
0.140,-0.013,-1.133,-6.244,1.145,-0.031,1035003
0.141,-0.017,-1.135,-6.275,1.191,0.122,1039014
0.131,-0.010,-1.133,-6.519,1.237,0.168,1043035
0.124,-0.015,-1.130,-6.275,1.511,0.351,1047046
0.126,-0.011,-1.130,-6.595,1.924,0.550,1051057
0.127,-0.016,-1.121,-6.656,2.214,0.626,1055068
0.126,-0.020,-1.118,-6.534,2.718,0.794,1059079
0.137,-0.013,-1.118,-6.427,2.794,0.763,1063091
0.124,-0.011,-1.118,-6.351,2.733,1.008,1067102
0.137,-0.008,-1.111,-6.153,2.824,1.115,1071113
0.144,-0.013,-1.120,-5.878,2.840,1.023,1075124
0.138,-0.012,-1.119,-5.893,2.901,1.069,1079135
0.140,-0.008,-1.118,-5.618,2.702,0.550,1083147
0.146,-0.012,-1.102,-5.374,2.427,0.626,1087158
0.149,-0.009,-1.114,-5.084,2.321,0.550,1091170
0.147,-0.005,-1.109,-5.038,2.031,0.427,1095180
0.144,-0.009,-1.108,-4.824,1.756,0.595,1099191
0.153,-0.000,-1.110,-4.626,1.435,0.595,1103211
0.149,-0.008,-1.110,-4.382,1.130,0.702,1107222
0.146,-0.008,-1.106,-4.626,0.962,0.840,1111233
0.142,-0.014,-1.116,-4.473,1.191,0.733,1115244
0.131,-0.014,-1.103,-4.779,0.992,0.473,1119255
0.135,-0.018,-1.112,-4.885,1.298,0.092,1123274
0.126,-0.009,-1.109,-4.855,1.267,-0.122,1127285
0.133,-0.007,-1.104,-4.763,1.740,-0.351,1131296
0.133,-0.005,-1.104,-4.565,2.015,-0.260,1135307
0.136,0.004,-1.106,-4.565,2.809,0.076,1139318
0.136,-0.002,-1.107,-4.275,2.977,0.122,1143336
0.134,-0.003,-1.107,-3.939,3.511,0.137,1147348
0.150,-0.003,-1.114,-3.908,3.634,0.015,1151358
0.149,0.001,-1.124,-3.740,3.511,-0.229,1155369
0.157,-0.007,-1.114,-3.740,3.038,-0.687,1159381
0.161,-0.008,-1.125,-3.557,2.137,-0.870,1163392
0.156,-0.002,-1.125,-3.389,1.710,-1.206,1167403
0.152,-0.003,-1.125,-3.008,1.221,-1.099,1171414
0.146,-0.001,-1.119,-2.931,1.237,-1.069,1175425
0.144,-0.003,-1.132,-2.687,1.145,-1.023,1179436
0.139,-0.004,-1.133,-2.763,0.977,-1.008,1183447
0.144,-0.007,-1.127,-2.840,1.084,-0.901,1187458
0.145,-0.013,-1.139,-2.962,0.855,-1.160,1191469
0.146,-0.021,-1.129,-3.313,0.412,-1.328,1195481
0.146,-0.018,-1.141,-3.542,-0.122,-1.634,1199492
0.133,-0.014,-1.140,-3.725,-0.336,-1.618,1203502
0.137,-0.009,-1.140,-4.122,-0.550,-1.573,1207513
0.135,-0.012,-1.145,-4.290,-0.290,-1.298,1211524
0.124,-0.011,-1.139,-4.458,0.092,-0.947,1215535
0.124,-0.011,-1.138,-4.580,0.397,-0.565,1219546
0.119,-0.015,-1.138,-4.901,0.397,-0.137,1223556
0.123,-0.015,-1.147,-5.252,0.351,-0.031,1227567
0.128,-0.015,-1.140,-5.313,0.321,0.000,1231578
0.121,-0.015,-1.144,-5.389,0.687,0.443,1235589
0.119,-0.009,-1.135,-5.221,0.504,0.412,1239600
0.120,-0.015,-1.150,-5.511,1.069,0.718,1243620
0.114,-0.018,-1.132,-5.420,1.450,0.656,1247631
0.125,-0.017,-1.137,-5.328,1.878,0.748,1251642
0.122,-0.019,-1.145,-5.496,2.061,0.992,1255653
0.122,-0.015,-1.144,-5.466,2.489,0.885,1259664
0.136,-0.015,-1.144,-5.344,2.794,0.595,1263685
0.129,-0.015,-1.139,-5.466,3.405,0.427,1267697
0.138,-0.012,-1.141,-5.099,3.557,0.504,1271708
0.141,-0.009,-1.134,-5.099,3.511,0.458,1275719
0.149,-0.006,-1.136,-5.344,2.901,0.275,1279730
0.157,-0.019,-1.141,-5.634,2.550,-0.031,1283743
0.149,-0.021,-1.131,-5.893,1.863,-0.489,1287754
0.150,-0.011,-1.132,-6.153,1.359,-0.611,1291765
0.151,-0.016,-1.131,-6.153,0.794,-0.519,1295777
0.148,-0.010,-1.131,-6.397,0.611,-0.718,1299788
0.147,-0.007,-1.132,-6.443,0.321,-0.702,1303800
0.150,-0.008,-1.131,-6.321,0.214,-0.336,1307810
0.141,-0.014,-1.132,-6.534,0.458,-0.351,1311821
0.140,-0.004,-1.125,-6.504,0.366,-0.092,1315832
0.134,-0.000,-1.135,-6.382,0.580,-0.122,1319843
0.128,-0.008,-1.128,-6.458,0.397,-0.198,1323864
0.139,-0.006,-1.125,-6.351,0.183,0.000,1327875
0.140,-0.008,-1.134,-6.214,-0.061,0.092,1331886
0.138,-0.009,-1.128,-5.924,-0.290,0.107,1335898
0.132,-0.003,-1.129,-5.649,-0.397,0.122,1339917
0.127,0.001,-1.122,-5.328,-0.534,0.015,1343928
0.132,-0.003,-1.121,-4.977,-0.275,0.031,1347939
0.126,-0.010,-1.120,-5.084,-0.046,-0.061,1351950
0.127,-0.015,-1.128,-5.023,0.489,-0.229,1355962
0.129,-0.010,-1.127,-4.855,1.252,-0.626,1359973
0.132,-0.012,-1.128,-4.947,1.511,-0.809,1363984
0.133,-0.013,-1.124,-5.237,1.359,-0.885,1367996
0.127,-0.019,-1.127,-5.527,1.191,-0.947,1372007
0.134,-0.015,-1.131,-6.015,1.420,-0.321,1376018
0.131,-0.016,-1.118,-6.229,1.771,-0.244,1380029
0.132,-0.010,-1.129,-6.305,1.817,0.031,1384040
0.126,-0.004,-1.134,-6.214,2.214,0.000,1388052
0.131,-0.014,-1.136,-6.198,2.107,-0.015,1392063
0.136,-0.012,-1.130,-6.214,1.878,-0.336,1396074
0.140,-0.011,-1.131,-6.305,1.924,-0.366,1400085
0.147,-0.006,-1.131,-6.382,1.450,-0.351,1404096
0.151,-0.008,-1.137,-6.366,0.977,-0.168,1408107
0.142,-0.007,-1.126,-6.122,0.687,-0.076,1412118
0.145,-0.002,-1.118,-5.802,0.473,0.122,1416129
0.139,-0.003,-1.123,-5.542,0.504,0.489,1420140
0.130,-0.006,-1.128,-5.511,0.122,0.611,1424151
0.136,-0.006,-1.126,-5.130,0.000,0.641,1428160
0.135,-0.003,-1.115,-4.855,0.000,0.672,1432171
0.130,0.000,-1.106,-4.504,-0.015,0.672,1436182
0.124,-0.000,-1.120,-4.229,0.046,0.473,1440193
0.130,-0.007,-1.129,-4.015,0.290,0.153,1444204
0.131,-0.007,-1.121,-4.198,0.534,-0.260,1448218
0.138,-0.003,-1.125,-4.244,0.672,-0.290,1452229
0.137,-0.015,-1.125,-4.382,0.687,-0.214,1456240
0.140,-0.009,-1.120,-4.397,0.595,-0.214,1460251
0.138,-0.015,-1.120,-4.519,0.351,-0.137,1464262
0.143,-0.016,-1.127,-4.672,0.351,0.183,1468274
0.144,-0.011,-1.122,-4.641,0.000,0.000,1472284
0.149,-0.014,-1.128,-4.962,-0.137,-0.183,1476296
0.153,-0.016,-1.125,-5.389,-0.412,-0.382,1480306
0.141,-0.013,-1.132,-5.939,-0.168,-0.626,1484317
0.133,-0.016,-1.125,-5.954,0.015,-0.382,1488330
0.133,-0.010,-1.120,-5.969,0.137,-0.504,1492341
0.140,-0.011,-1.120,-5.939,0.504,-0.412,1496353
0.135,-0.011,-1.123,-6.015,0.519,-0.168,1500363
0.139,-0.009,-1.119,-5.924,0.779,-0.214,1504374
0.136,-0.003,-1.108,-5.863,0.718,0.015,1508385
0.135,-0.005,-1.117,-5.328,0.763,0.229,1512396
0.125,-0.005,-1.112,-5.252,0.779,0.076,1516407
0.129,-0.001,-1.121,-4.947,1.023,-0.015,1520418
0.136,-0.007,-1.119,-4.718,1.053,-0.244,1524429
0.134,-0.010,-1.121,-4.260,1.160,-0.611,1528440
0.136,-0.010,-1.117,-4.076,1.130,-0.595,1532451
0.142,-0.012,-1.122,-4.046,1.008,-0.550,1536463
0.140,-0.014,-1.124,-3.756,0.809,-0.595,1540473
0.136,-0.016,-1.116,-3.969,1.069,-0.397,1544484
0.129,-0.015,-1.116,-4.076,1.206,-0.305,1548495
0.133,-0.013,-1.116,-4.092,1.313,-0.046,1552506
0.137,-0.018,-1.112,-4.427,1.511,-0.198,1556518
0.137,-0.019,-1.120,-4.336,1.344,-0.092,1560529
0.135,-0.015,-1.112,-4.366,1.908,-0.214,1564540
0.137,-0.019,-1.116,-4.595,1.496,-0.443,1568548
0.142,-0.015,-1.122,-4.702,1.450,-0.580,1572559
0.150,-0.022,-1.125,-5.191,1.282,-0.534,1576570
0.147,-0.016,-1.122,-5.267,1.053,-0.626,1580581
0.146,-0.015,-1.125,-5.832,0.870,-0.565,1584592
0.136,-0.009,-1.126,-5.695,0.931,-0.305,1588604
0.133,0.001,-1.125,-5.756,0.595,-0.366,1592615
0.132,-0.004,-1.132,-5.725,1.435,-0.168,1596626
0.135,-0.013,-1.122,-6.015,1.267,0.015,1600637
0.135,-0.012,-1.124,-5.939,1.145,0.168,1604648
0.138,-0.003,-1.121,-5.985,1.176,0.290,1608660
0.133,-0.008,-1.125,-5.969,1.374,0.198,1612681
0.127,-0.011,-1.121,-5.954,1.817,0.015,1616692
0.125,-0.013,-1.125,-5.664,2.015,0.076,1620704
0.119,-0.009,-1.127,-5.802,2.733,-0.198,1624715
0.127,-0.003,-1.133,-5.557,3.618,-0.336,1628726
0.133,-0.006,-1.115,-5.771,4.214,-0.458,1632741
0.138,-0.007,-1.121,-5.878,4.122,-0.412,1636753
0.150,-0.004,-1.123,-5.954,4.229,-0.397,1640764
0.148,-0.000,-1.129,-5.771,3.649,-0.519,1644775
0.147,-0.004,-1.127,-5.710,3.237,-0.779,1648786
0.149,-0.001,-1.126,-5.389,2.656,-0.840,1652797
0.151,-0.003,-1.129,-5.542,2.015,-1.084,1656808
0.144,-0.004,-1.128,-5.145,1.328,-0.702,1660820
0.143,0.001,-1.121,-5.206,0.733,-0.672,1664831
0.144,-0.000,-1.113,-4.947,-0.031,-0.702,1668842
0.137,-0.006,-1.124,-4.901,-0.076,-0.687,1672852
0.131,-0.006,-1.121,-4.702,-0.076,-0.840,1676863
0.129,-0.008,-1.130,-4.504,-0.031,-0.748,1680874
0.132,-0.006,-1.122,-4.397,-0.046,-1.557,1684886
0.133,-0.013,-1.119,-4.489,0.168,-1.679,1688897
0.133,-0.004,-1.120,-4.229,0.137,-1.771,1692906
0.130,-0.013,-1.130,-4.412,0.168,-1.557,1696917
0.130,-0.003,-1.127,-4.260,1.099,-1.435,1700928
0.124,-0.008,-1.130,-4.290,0.763,-1.267,1704940
0.125,-0.002,-1.137,-4.198,0.916,-1.267,1708951
0.133,-0.006,-1.137,-4.382,0.718,-1.191,1712970
0.137,-0.020,-1.145,-4.779,0.489,-1.145,1716981
0.137,-0.024,-1.130,-4.962,0.336,-1.282,1720992
0.130,-0.017,-1.133,-4.977,0.153,-1.221,1725003
0.129,-0.021,-1.135,-5.176,0.061,-1.145,1729014
0.129,-0.009,-1.128,-5.359,0.809,-1.023,1733035
0.117,-0.009,-1.128,-5.282,1.191,-0.901,1737046
0.124,-0.005,-1.123,-5.496,1.405,-0.916,1741057
0.125,-0.007,-1.123,-5.481,1.817,-0.366,1745069
0.137,-0.012,-1.125,-5.588,1.908,-0.351,1749080
0.139,-0.008,-1.127,-5.771,1.802,-0.489,1753091
0.140,-0.004,-1.117,-5.435,1.908,-0.534,1757103
0.135,-0.007,-1.127,-5.313,1.756,-0.611,1761113
0.145,-0.003,-1.124,-5.130,1.908,-0.840,1765124
0.146,-0.011,-1.130,-5.115,1.282,-1.206,1769136
0.146,-0.011,-1.132,-4.931,0.611,-1.298,1773147
0.138,-0.004,-1.133,-4.672,-0.092,-1.359,1777158
0.147,-0.010,-1.125,-4.702,-0.519,-1.618,1781169
0.139,-0.014,-1.132,-4.779,-0.809,-1.603,1785180
0.135,-0.011,-1.130,-4.947,-0.885,-1.618,1789191
0.122,-0.010,-1.127,-4.763,-0.046,-1.359,1793211
0.117,-0.007,-1.130,-4.931,0.565,-1.206,1797223
0.116,-0.008,-1.134,-4.947,1.038,-1.206,1801233
0.122,-0.019,-1.133,-5.023,1.450,-1.359,1805244
0.120,-0.019,-1.131,-5.084,1.542,-1.191,1809256
0.124,-0.014,-1.131,-5.160,1.740,-1.069,1813275
0.120,-0.015,-1.131,-5.176,1.328,-0.718,1817286
0.129,-0.015,-1.128,-5.389,1.511,-0.809,1821297
0.135,-0.007,-1.121,-5.405,1.344,-0.855,1825308
0.130,-0.012,-1.112,-5.389,1.237,-0.656,1829319
0.133,-0.006,-1.125,-5.618,1.282,-1.038,1833337
0.123,-0.016,-1.125,-5.969,1.313,-0.840,1837349
0.128,-0.018,-1.117,-6.198,1.557,-0.840,1841360
0.126,-0.012,-1.115,-6.076,1.710,-0.870,1845372
0.125,-0.001,-1.125,-5.832,1.847,-0.763,1849383
0.131,0.001,-1.128,-5.618,1.985,-0.916,1853394
0.139,-0.004,-1.126,-5.649,1.664,-0.672,1857405
0.142,-0.005,-1.131,-5.221,1.313,-0.656,1861417
0.142,-0.010,-1.129,-5.359,0.611,-0.916,1865427
0.141,-0.013,-1.127,-5.191,-0.183,-1.038,1869438
0.139,-0.009,-1.128,-5.038,-0.763,-0.992,1873449
0.141,0.001,-1.125,-5.038,-1.237,-1.053,1877460
0.134,-0.011,-1.124,-4.855,-1.145,-1.053,1881471
0.130,-0.009,-1.125,-4.870,-0.962,-1.008,1885482
0.132,-0.007,-1.129,-4.947,-0.595,-1.344,1889493
0.123,-0.016,-1.124,-4.855,0.031,-1.069,1893504
0.128,-0.017,-1.129,-5.206,0.534,-1.237,1897515
0.129,-0.010,-1.120,-5.206,0.595,-0.687,1901526
0.126,-0.015,-1.113,-5.496,0.885,-0.580,1905537
0.123,-0.015,-1.112,-5.817,1.389,-0.534,1909548
0.122,-0.015,-1.124,-6.000,1.756,-0.489,1913563
0.121,-0.012,-1.122,-6.061,1.527,-0.412,1917574
0.118,-0.012,-1.118,-6.122,1.802,-0.397,1921585
0.131,-0.009,-1.121,-6.321,2.214,-0.656,1925596
0.126,-0.010,-1.119,-6.153,2.427,-0.443,1929607
0.135,-0.013,-1.115,-5.893,2.107,-0.412,1933627
0.135,-0.005,-1.114,-5.618,1.771,-0.244,1937638
0.137,0.001,-1.108,-5.023,1.511,-0.351,1941649
0.136,-0.005,-1.118,-4.427,1.481,-0.580,1945661
0.137,-0.000,-1.113,-4.153,1.145,-0.443,1949672
0.132,-0.010,-1.109,-3.588,0.748,-0.565,1953692
0.138,-0.006,-1.118,-3.267,0.443,-0.611,1957703
0.140,-0.011,-1.116,-2.763,0.168,-0.489,1961714
0.139,-0.013,-1.125,-2.855,-0.061,-0.321,1965725
0.135,-0.011,-1.113,-2.824,-0.321,-0.489,1969736
0.124,-0.016,-1.120,-2.977,-0.015,-0.351,1973748
0.112,-0.011,-1.113,-2.870,0.504,-0.366,1977759
0.110,-0.010,-1.127,-3.099,1.221,-0.458,1981770
0.117,-0.010,-1.133,-3.450,1.863,-0.809,1985781
0.124,-0.020,-1.114,-4.137,2.290,-0.641,1989792
0.121,-0.018,-1.122,-4.336,2.931,-0.550,1993804
0.126,-0.016,-1.122,-4.840,2.763,-0.550,1997814
0.131,-0.020,-1.124,-5.344,3.084,-0.534,2001825
