acc_x,acc_y,acc_z,gyro_x,gyro_y,gyro_z,time
0.291,-0.037,-1.113,-2.351,-0.244,-1.359,0
0.284,-0.043,-1.118,-2.275,0.015,-1.603,4047
0.291,-0.046,-1.120,-2.489,0.092,-1.725,8058
0.288,-0.045,-1.122,-2.885,0.198,-2.183,12070
0.286,-0.046,-1.116,-2.580,0.076,-2.443,16080
0.288,-0.045,-1.126,-3.069,0.198,-2.336,20091
0.288,-0.043,-1.122,-3.160,0.198,-2.550,24103
0.286,-0.047,-1.129,-3.420,0.031,-2.626,28109
0.279,-0.045,-1.126,-3.481,0.183,-2.840,32120
0.279,-0.047,-1.128,-3.679,0.458,-2.656,36131
0.282,-0.046,-1.115,-3.740,0.382,-2.672,40142
0.281,-0.043,-1.120,-3.847,0.412,-2.656,44153
0.280,-0.043,-1.112,-3.573,0.473,-2.626,48164
0.281,-0.033,-1.114,-3.237,0.947,-2.626,52175
0.281,-0.042,-1.111,-3.145,0.565,-2.855,56186
0.289,-0.040,-1.120,-3.282,0.412,-2.947,60197
0.284,-0.043,-1.120,-3.130,0.244,-2.901,64208
0.280,-0.043,-1.113,-3.206,-0.046,-2.855,68222
0.281,-0.048,-1.125,-3.420,-0.504,-3.130,72233
0.286,-0.046,-1.122,-3.527,-0.809,-3.130,76244
0.287,-0.044,-1.114,-3.252,-0.840,-3.267,80255
0.280,-0.036,-1.109,-3.267,-0.702,-3.237,84266
0.269,-0.042,-1.118,-3.160,-0.504,-3.038,88277
0.271,-0.042,-1.118,-3.053,-0.473,-2.534,92288
0.271,-0.047,-1.115,-2.992,-0.275,-2.504,96299
0.274,-0.048,-1.118,-3.069,-0.137,-2.092,100311
0.269,-0.045,-1.115,-2.931,0.443,-1.985,104322
0.273,-0.043,-1.112,-2.977,0.443,-1.603,108334
0.270,-0.042,-1.118,-2.763,0.611,-1.160,112346
0.270,-0.045,-1.134,-2.809,1.145,-1.160,116356
0.278,-0.042,-1.119,-2.748,1.130,-0.916,120367
0.278,-0.043,-1.132,-2.641,1.160,-0.748,124378
0.281,-0.041,-1.119,-2.626,1.466,-0.595,128389
0.277,-0.043,-1.122,-2.794,1.237,-0.580,132400
0.281,-0.048,-1.121,-2.840,1.237,-0.687,136411
0.288,-0.045,-1.120,-2.931,1.130,-0.870,140422
0.280,-0.051,-1.125,-2.977,0.931,-0.962,144433
0.286,-0.053,-1.124,-2.840,1.099,-1.206,148444
0.286,-0.054,-1.127,-3.252,0.840,-1.359,152455
0.285,-0.050,-1.116,-3.221,1.145,-1.618,156467
0.289,-0.045,-1.125,-3.527,1.084,-1.725,160478
0.284,-0.049,-1.120,-3.481,1.191,-1.695,164489
0.287,-0.048,-1.122,-3.389,1.099,-1.771,168500
0.289,-0.046,-1.126,-3.115,1.160,-1.863,172511
0.290,-0.052,-1.120,-3.267,0.840,-1.679,176522
0.285,-0.050,-1.119,-3.237,0.763,-1.832,180533
0.288,-0.048,-1.121,-3.405,0.656,-1.756,184544
0.289,-0.047,-1.114,-3.191,0.733,-1.863,188552
0.281,-0.055,-1.123,-3.130,0.702,-1.832,192564
0.285,-0.049,-1.119,-3.344,1.053,-1.771,196574
0.276,-0.046,-1.124,-3.160,1.115,-1.817,200585
0.279,-0.052,-1.115,-3.252,1.557,-1.603,204596
0.278,-0.054,-1.113,-3.008,1.695,-1.466,208608
0.279,-0.050,-1.119,-2.916,2.046,-1.435,212619
0.280,-0.048,-1.106,-3.099,2.092,-1.176,216630
0.282,-0.046,-1.116,-3.069,2.366,-1.206,220641
0.277,-0.054,-1.125,-3.023,2.061,-1.511,224652
0.285,-0.049,-1.127,-3.130,2.092,-1.542,228664
0.285,-0.050,-1.121,-3.252,1.985,-1.389,232685
0.288,-0.049,-1.121,-3.069,1.466,-1.435,236696
0.289,-0.039,-1.120,-2.947,1.435,-1.450,240707
0.289,-0.043,-1.119,-2.901,1.221,-1.420,244718
0.286,-0.046,-1.118,-2.947,0.855,-1.664,248730
0.284,-0.044,-1.115,-2.763,0.305,-1.771,252745
0.284,-0.048,-1.117,-2.641,0.321,-2.061,256756
0.287,-0.051,-1.115,-2.595,0.153,-2.183,260767
0.283,-0.051,-1.125,-2.718,-0.015,-2.489,264779
0.278,-0.050,-1.116,-2.565,-0.107,-2.534,268789
0.276,-0.053,-1.115,-2.611,-0.107,-2.779,272801
0.278,-0.056,-1.121,-2.901,0.046,-3.038,276811
0.279,-0.047,-1.121,-2.931,0.183,-2.947,280822
0.273,-0.046,-1.128,-3.038,0.382,-3.038,284834
0.275,-0.051,-1.127,-2.824,0.183,-2.794,288845
0.275,-0.046,-1.113,-2.794,0.565,-2.656,292855
0.271,-0.049,-1.123,-2.641,0.809,-2.260,296866
0.277,-0.050,-1.116,-2.672,0.962,-1.893,300877
0.276,-0.048,-1.115,-2.565,1.328,-1.527,304888
0.271,-0.048,-1.117,-2.321,1.786,-1.237,308900
0.277,-0.047,-1.121,-2.290,2.015,-1.099,312910
0.271,-0.051,-1.114,-2.046,2.366,-0.870,316922
0.270,-0.049,-1.119,-1.893,2.229,-0.611,320933
0.274,-0.047,-1.122,-1.924,2.366,-0.565,324944
0.281,-0.049,-1.114,-1.802,2.244,-0.565,328956
0.286,-0.049,-1.115,-1.847,1.985,-0.779,332976
0.285,-0.047,-1.124,-1.679,1.771,-0.794,336987
0.282,-0.056,-1.119,-1.740,1.603,-1.008,340998
0.287,-0.049,-1.116,-1.939,1.191,-1.328,345009
0.286,-0.050,-1.115,-2.092,0.550,-1.557,349020
0.285,-0.045,-1.120,-2.229,0.351,-1.649,353041
0.284,-0.051,-1.125,-2.443,0.015,-1.664,357052
0.283,-0.053,-1.119,-2.580,0.046,-1.985,361064
0.269,-0.050,-1.123,-2.916,0.183,-2.015,365075
0.268,-0.054,-1.115,-2.947,0.046,-2.290,369086
0.278,-0.047,-1.127,-3.267,0.244,-1.985,373100
0.271,-0.044,-1.124,-3.176,0.565,-2.198,377111
0.278,-0.042,-1.122,-3.069,0.779,-1.771,381122
0.275,-0.042,-1.119,-3.038,0.794,-1.450,385133
0.285,-0.043,-1.127,-2.794,1.053,-1.191,389144
0.285,-0.041,-1.117,-2.580,1.221,-0.580,393154
0.279,-0.036,-1.116,-2.214,1.511,-0.718,397165
0.275,-0.042,-1.121,-2.061,1.573,-0.366,401176
0.280,-0.046,-1.128,-1.969,1.863,-0.305,405187
0.280,-0.048,-1.119,-1.908,1.954,-0.412,409198
0.286,-0.051,-1.117,-1.756,2.183,-0.305,413219
0.292,-0.042,-1.126,-1.740,2.565,-0.473,417230
0.281,-0.052,-1.128,-1.863,2.244,-0.412,421241
0.275,-0.045,-1.135,-1.893,2.473,-0.565,425252
0.279,-0.048,-1.121,-1.908,2.244,-0.687,429263
0.286,-0.055,-1.123,-1.924,2.275,-0.687,433284
0.288,-0.056,-1.126,-2.290,2.061,-0.962,437295
0.286,-0.051,-1.126,-2.397,1.740,-1.023,441307
0.283,-0.056,-1.115,-2.611,1.344,-1.145,445318
0.295,-0.043,-1.123,-3.008,1.130,-1.450,449329
0.292,-0.049,-1.130,-2.809,1.084,-1.603,453347
0.293,-0.039,-1.128,-2.855,0.519,-1.786,457358
0.293,-0.039,-1.128,-2.947,0.244,-2.015,461369
0.283,-0.044,-1.124,-3.038,-0.260,-2.397,465380
0.285,-0.042,-1.119,-2.931,-0.687,-2.687,469391
0.291,-0.045,-1.125,-2.733,-0.870,-2.901,473403
0.281,-0.048,-1.120,-2.794,-1.099,-2.947,477414
0.278,-0.041,-1.123,-2.870,-1.359,-2.977,481426
0.282,-0.046,-1.126,-3.069,-1.160,-2.947,485436
0.285,-0.042,-1.133,-3.252,-0.855,-2.992,489447
0.275,-0.043,-1.121,-3.099,-0.687,-2.916,493458
0.271,-0.046,-1.125,-3.145,-0.504,-2.656,497470
0.266,-0.037,-1.125,-3.038,0.000,-2.718,501480
0.275,-0.035,-1.128,-2.718,0.534,-2.275,505491
0.273,-0.032,-1.123,-2.412,0.641,-2.092,509503
0.270,-0.033,-1.118,-2.168,1.008,-1.740,513513
0.273,-0.040,-1.128,-2.015,1.099,-1.420,517524
0.284,-0.031,-1.132,-1.847,1.130,-1.008,521535
0.280,-0.033,-1.127,-1.740,1.115,-0.595,525546
0.290,-0.038,-1.123,-1.603,0.992,-0.794,529557
0.287,-0.041,-1.125,-1.588,0.901,-0.473,533568
0.278,-0.045,-1.123,-1.695,0.748,-0.443,537579
0.278,-0.046,-1.123,-2.122,0.656,-0.626,541591
0.275,-0.058,-1.122,-2.275,0.840,-0.718,545602
0.291,-0.055,-1.128,-2.641,0.748,-0.794,549613
0.280,-0.060,-1.131,-3.069,0.794,-1.176,553633
0.284,-0.056,-1.125,-3.542,0.702,-1.435,557644
0.287,-0.053,-1.129,-3.847,0.611,-1.771,561655
0.289,-0.051,-1.118,-3.939,0.351,-1.802,565666
0.285,-0.047,-1.121,-3.954,0.305,-2.107,569677
0.286,-0.045,-1.122,-3.939,0.122,-2.198,573698
0.287,-0.046,-1.115,-3.893,0.000,-2.397,577709
0.279,-0.047,-1.132,-3.634,-0.168,-2.229,581721
0.277,-0.044,-1.123,-3.618,0.107,-2.107,585731
0.276,-0.044,-1.119,-3.527,0.076,-2.061,589742
0.285,-0.045,-1.124,-3.435,0.290,-2.031,593754
0.280,-0.050,-1.125,-3.542,0.565,-1.786,597764
0.283,-0.048,-1.121,-3.374,0.672,-1.893,601775
0.281,-0.048,-1.122,-3.389,0.489,-1.634,605786
0.279,-0.052,-1.124,-3.435,0.473,-1.573,609797
0.286,-0.048,-1.118,-3.313,0.550,-1.634,613807
0.289,-0.045,-1.121,-3.618,0.489,-1.786,617818
0.277,-0.040,-1.115,-3.466,1.023,-1.756,621830
0.279,-0.038,-1.126,-2.992,1.160,-1.664,625840
0.280,-0.036,-1.105,-3.038,1.389,-1.939,629851
0.281,-0.043,-1.121,-2.748,1.756,-1.908,633871
0.279,-0.044,-1.105,-2.870,1.649,-2.168,637882
0.283,-0.045,-1.114,-2.641,1.557,-1.908,641893
0.282,-0.039,-1.119,-2.672,1.221,-2.061,645904
0.290,-0.044,-1.115,-2.443,1.023,-1.878,649920
0.277,-0.048,-1.125,-2.504,0.824,-1.878,653931
0.280,-0.047,-1.113,-2.550,0.733,-1.817,657942
0.283,-0.048,-1.119,-2.702,0.061,-1.542,661953
0.278,-0.049,-1.123,-2.916,0.076,-1.740,665965
0.279,-0.045,-1.115,-2.962,-0.336,-1.618,669975
0.276,-0.051,-1.126,-2.885,-0.061,-1.817,673986
0.278,-0.044,-1.128,-3.145,-0.229,-1.771,677998
0.279,-0.049,-1.117,-3.176,-0.198,-1.908,682009
0.278,-0.047,-1.126,-3.221,-0.290,-2.183,686020
0.275,-0.050,-1.130,-3.191,-0.336,-2.366,690031
0.279,-0.047,-1.120,-3.328,-0.260,-2.397,694042
0.277,-0.041,-1.114,-3.481,-0.351,-2.473,698053
0.279,-0.041,-1.117,-3.435,-0.427,-2.397,702064
0.272,-0.040,-1.122,-3.298,-0.290,-2.351,706075
0.273,-0.042,-1.120,-3.176,-0.351,-2.137,710086
0.271,-0.040,-1.113,-2.840,-0.183,-1.756,714097
0.271,-0.039,-1.124,-2.534,0.321,-1.817,718109
0.269,-0.042,-1.119,-2.565,0.412,-1.053,722120
0.264,-0.038,-1.115,-2.336,0.763,-0.840,726131
0.275,-0.041,-1.104,-1.908,1.252,-0.641,730142
0.277,-0.038,-1.117,-1.313,1.710,-0.641,734153
0.265,-0.038,-1.112,-1.466,2.260,-0.336,738160
0.270,-0.044,-1.122,-1.405,2.137,-0.275,742170
0.272,-0.048,-1.120,-1.405,2.168,-0.061,746181
0.291,-0.053,-1.121,-1.908,2.153,-0.611,750192
0.291,-0.046,-1.129,-2.031,1.634,-0.840,754203
0.288,-0.050,-1.121,-1.939,0.947,-1.023,758214
0.286,-0.044,-1.120,-2.229,0.748,-1.069,762225
0.280,-0.050,-1.133,-2.366,0.107,-1.389,766236
0.291,-0.053,-1.120,-2.595,-0.198,-1.618,770247
0.283,-0.047,-1.123,-2.947,-0.321,-2.076,774258
0.281,-0.055,-1.132,-3.191,-0.550,-2.351,778270
0.281,-0.051,-1.135,-3.542,-0.947,-2.611,782280
0.283,-0.050,-1.131,-3.466,-0.885,-2.580,786291
0.278,-0.045,-1.132,-3.695,-1.252,-2.718,790302
0.277,-0.051,-1.137,-3.664,-1.542,-2.718,794313
0.279,-0.046,-1.132,-3.893,-1.634,-2.672,798324
0.282,-0.047,-1.125,-3.710,-1.420,-2.443,802335
0.277,-0.044,-1.127,-3.511,-0.931,-2.290,806346
0.275,-0.044,-1.135,-3.725,-0.870,-1.939,810357
0.272,-0.044,-1.131,-3.313,-0.351,-1.908,814368
0.273,-0.044,-1.124,-3.435,0.000,-1.802,818379
0.272,-0.047,-1.124,-3.542,0.397,-1.679,822390
0.272,-0.046,-1.125,-3.511,1.038,-1.176,826401
0.265,-0.048,-1.120,-3.435,1.435,-1.069,830412
0.269,-0.045,-1.126,-3.405,1.924,-0.824,834423
0.272,-0.043,-1.130,-3.176,2.412,-0.840,838434
0.274,-0.041,-1.124,-3.069,2.489,-0.489,842445
0.276,-0.043,-1.122,-2.916,2.641,-0.595,846457
0.276,-0.046,-1.121,-2.962,2.275,-0.534,850467
0.281,-0.051,-1.130,-2.794,1.954,-0.321,854478
0.285,-0.049,-1.123,-3.008,1.511,-0.458,858489
0.277,-0.049,-1.119,-3.053,1.099,-0.748,862500
0.284,-0.047,-1.123,-3.069,0.611,-0.779,866512
0.285,-0.051,-1.128,-3.176,0.244,-0.901,870523
0.284,-0.042,-1.120,-3.420,-0.412,-1.115,874534
0.278,-0.051,-1.126,-3.588,-0.779,-1.344,878542
0.278,-0.049,-1.120,-3.649,-0.885,-1.695,882553
0.278,-0.050,-1.120,-3.725,-1.115,-1.847,886564
0.268,-0.052,-1.120,-3.969,-1.115,-2.031,890576
0.270,-0.048,-1.121,-4.092,-1.008,-2.061,894587
0.271,-0.045,-1.125,-4.198,-0.519,-2.275,898600
0.270,-0.040,-1.125,-4.168,-0.397,-2.290,902611
0.272,-0.044,-1.122,-4.061,-0.244,-2.076,906622
0.267,-0.044,-1.123,-4.000,0.580,-1.878,910634
0.266,-0.043,-1.124,-4.046,0.656,-1.435,914645
0.264,-0.041,-1.128,-3.893,1.191,-1.160,918656
0.266,-0.042,-1.123,-3.786,1.389,-0.931,922677
0.268,-0.041,-1.121,-3.679,1.679,-0.855,926688
0.269,-0.040,-1.123,-3.313,1.817,-0.458,930699
0.264,-0.045,-1.123,-3.313,2.336,-0.092,934710
0.268,-0.042,-1.123,-3.496,2.458,0.076,938722
0.261,-0.048,-1.115,-3.344,2.595,0.382,942732
0.269,-0.041,-1.122,-3.084,2.840,0.397,946744
0.271,-0.043,-1.120,-3.053,3.084,0.336,950755
0.277,-0.041,-1.120,-3.328,2.824,0.443,954766
0.276,-0.046,-1.115,-3.282,2.534,0.672,958778
0.281,-0.044,-1.107,-3.298,2.198,0.519,962790
0.280,-0.037,-1.112,-2.901,2.061,0.382,966801
0.283,-0.042,-1.121,-2.977,1.832,0.336,970812
0.285,-0.040,-1.118,-3.069,1.298,-0.153,974824
0.287,-0.038,-1.110,-2.992,0.901,-0.183,978835
0.287,-0.044,-1.115,-3.252,0.214,-0.504,982846
0.287,-0.047,-1.125,-3.389,-0.046,-0.702,986857
0.286,-0.047,-1.117,-3.374,-0.458,-0.611,990868
0.288,-0.047,-1.122,-3.603,-0.840,-0.901,994879
0.287,-0.039,-1.127,-3.603,-1.221,-1.099,998890
0.286,-0.046,-1.126,-3.695,-1.237,-0.977,1002902
0.281,-0.042,-1.121,-3.756,-1.282,-0.672,1006913
0.273,-0.043,-1.124,-3.725,-0.931,-0.809,1010924
0.278,-0.044,-1.127,-3.710,-0.595,-0.519,1014935
0.271,-0.040,-1.122,-3.466,-0.046,-0.321,1018947
0.265,-0.033,-1.125,-3.176,0.351,-0.122,1022966
0.268,-0.039,-1.133,-3.191,1.130,0.137,1026977
0.270,-0.047,-1.125,-2.870,1.817,0.427,1030988
0.275,-0.046,-1.136,-3.038,2.382,0.748,1035000
0.279,-0.043,-1.125,-3.053,2.473,0.733,1039011
0.290,-0.052,-1.123,-2.992,2.534,0.824,1043031
0.289,-0.040,-1.133,-2.962,2.458,0.702,1047041
0.293,-0.046,-1.144,-3.252,2.458,0.763,1051053
0.289,-0.039,-1.124,-3.374,2.275,0.458,1055063
0.294,-0.050,-1.127,-3.664,1.832,0.534,1059074
0.296,-0.046,-1.130,-3.832,1.481,-0.076,1063092
0.296,-0.048,-1.128,-3.954,1.237,-0.244,1067103
0.303,-0.050,-1.133,-4.107,0.794,-0.641,1071114
0.304,-0.049,-1.140,-4.305,0.260,-1.069,1075125
0.303,-0.041,-1.128,-4.137,-0.290,-1.618,1079136
0.306,-0.048,-1.134,-4.183,-0.947,-2.168,1083146
0.307,-0.039,-1.126,-4.443,-1.481,-2.275,1087157
0.299,-0.041,-1.128,-4.366,-1.588,-2.687,1091168
0.294,-0.043,-1.133,-4.229,-1.679,-3.069,1095180
0.291,-0.042,-1.133,-4.183,-2.168,-3.328,1099191
0.285,-0.049,-1.132,-4.061,-1.634,-3.435,1103211
0.281,-0.043,-1.120,-4.137,-1.527,-3.389,1107222
0.279,-0.043,-1.126,-4.046,-1.008,-3.557,1111233
0.276,-0.043,-1.125,-4.198,-0.947,-3.359,1115244
0.278,-0.053,-1.131,-4.321,-0.443,-3.313,1119255
0.280,-0.051,-1.125,-4.458,0.122,-2.962,1123276
0.274,-0.049,-1.125,-4.427,0.611,-2.901,1127288
0.269,-0.050,-1.115,-4.336,0.779,-2.321,1131299
0.263,-0.042,-1.124,-4.458,0.916,-2.275,1135311
0.268,-0.037,-1.118,-4.397,1.206,-1.817,1139322
0.269,-0.041,-1.120,-4.122,1.313,-1.634,1143340
0.277,-0.032,-1.125,-3.954,1.252,-1.328,1147350
0.283,-0.034,-1.117,-3.679,1.145,-1.267,1151361
0.276,-0.035,-1.124,-3.557,0.885,-1.099,1155372
0.283,-0.039,-1.121,-3.557,0.458,-1.313,1159383
0.281,-0.042,-1.120,-3.359,0.473,-1.191,1163394
0.274,-0.043,-1.120,-3.206,0.031,-1.206,1167405
0.283,-0.042,-1.121,-3.176,-0.397,-1.389,1171416
0.286,-0.048,-1.119,-3.359,-0.733,-1.695,1175427
0.290,-0.046,-1.116,-3.130,-0.870,-1.954,1179439
0.283,-0.046,-1.125,-3.237,-1.145,-2.183,1183450
0.280,-0.049,-1.124,-3.389,-1.374,-2.504,1187461
0.278,-0.049,-1.121,-3.511,-1.405,-2.626,1191472
0.273,-0.048,-1.132,-3.603,-1.511,-2.824,1195483
0.268,-0.046,-1.126,-3.588,-0.947,-2.840,1199494
0.264,-0.044,-1.122,-3.588,-1.008,-3.069,1203504
0.268,-0.037,-1.122,-3.573,-0.733,-2.840,1207515
0.268,-0.044,-1.121,-3.573,-0.290,-2.794,1211526
0.264,-0.038,-1.124,-3.557,0.076,-2.473,1215537
0.262,-0.044,-1.122,-3.389,0.427,-2.382,1219548
0.273,-0.046,-1.119,-3.603,0.672,-2.015,1223559
0.263,-0.046,-1.106,-3.618,1.053,-1.893,1227571
0.264,-0.040,-1.118,-3.542,1.038,-1.374,1231582
0.264,-0.046,-1.119,-3.466,1.435,-1.008,1235594
0.263,-0.038,-1.131,-3.466,1.527,-1.069,1239605
0.269,-0.040,-1.119,-3.466,1.710,-1.008,1243625
0.267,-0.038,-1.119,-3.206,1.634,-0.992,1247635
0.274,-0.040,-1.120,-2.931,1.802,-0.702,1251646
0.280,-0.037,-1.121,-3.191,1.252,-0.580,1255657
0.274,-0.030,-1.113,-2.870,0.931,-0.626,1259668
0.276,-0.040,-1.114,-2.748,0.458,-0.779,1263688
0.282,-0.041,-1.114,-2.748,0.107,-0.947,1267699
0.273,-0.044,-1.119,-2.656,-0.351,-0.763,1271710
0.279,-0.036,-1.120,-2.427,-0.366,-1.023,1275721
0.277,-0.039,-1.124,-2.656,-0.626,-1.176,1279732
0.277,-0.039,-1.122,-2.672,-0.840,-1.298,1283746
0.276,-0.039,-1.128,-2.626,-0.824,-1.405,1287756
0.271,-0.043,-1.120,-2.977,-0.824,-1.603,1291767
0.273,-0.042,-1.117,-2.977,-0.611,-1.435,1295778
0.281,-0.044,-1.119,-3.023,-0.534,-1.496,1299789
0.274,-0.045,-1.128,-3.069,-0.382,-1.267,1303801
0.273,-0.043,-1.132,-3.389,-0.321,-1.344,1307812
0.278,-0.045,-1.121,-3.099,-0.351,-1.115,1311823
0.282,-0.043,-1.116,-3.176,-0.382,-0.840,1315834
0.283,-0.040,-1.124,-3.191,-0.244,-1.069,1319846
0.278,-0.038,-1.119,-3.145,-0.366,-1.130,1323866
0.276,-0.034,-1.132,-2.840,-0.321,-0.992,1327878
0.279,-0.033,-1.124,-2.870,-0.183,-1.176,1331889
0.282,-0.031,-1.125,-2.473,0.031,-1.191,1335900
0.283,-0.035,-1.116,-2.198,0.229,-1.435,1339920
0.280,-0.034,-1.113,-1.939,0.427,-1.603,1343931
0.281,-0.032,-1.119,-1.832,0.611,-1.481,1347942
0.279,-0.040,-1.117,-1.588,0.626,-1.237,1351953
0.274,-0.035,-1.118,-1.420,0.412,-1.053,1355964
0.279,-0.038,-1.124,-1.450,0.489,-0.718,1359975
0.278,-0.045,-1.120,-1.542,0.718,-0.748,1363986
0.279,-0.037,-1.134,-1.573,0.626,-0.397,1367997
0.280,-0.040,-1.124,-2.000,0.748,-0.305,1372008
0.270,-0.042,-1.135,-2.031,1.008,-0.092,1376019
0.280,-0.042,-1.131,-1.939,1.099,-0.122,1380030
0.280,-0.043,-1.131,-2.168,0.992,-0.076,1384041
0.279,-0.046,-1.124,-2.366,0.763,-0.183,1388052
0.278,-0.042,-1.126,-2.427,0.489,-0.275,1392063
0.288,-0.041,-1.124,-2.702,0.275,-0.397,1396074
0.284,-0.040,-1.128,-2.885,0.168,-0.519,1400086
0.287,-0.041,-1.130,-2.916,-0.046,-0.534,1404097
0.285,-0.040,-1.138,-3.069,0.000,-0.550,1408109
0.287,-0.041,-1.136,-3.237,-0.137,-0.626,1412120
0.275,-0.044,-1.127,-3.344,-0.336,-0.702,1416131
0.281,-0.045,-1.141,-3.695,-0.550,-0.824,1420142
0.281,-0.041,-1.142,-3.756,-0.260,-1.099,1424153
0.284,-0.041,-1.130,-3.908,-0.122,-1.206,1428160
0.284,-0.042,-1.129,-4.031,-0.092,-1.176,1432170
0.284,-0.039,-1.130,-3.817,0.137,-1.115,1436181
0.288,-0.037,-1.130,-3.847,0.183,-1.084,1440192
0.282,-0.031,-1.133,-3.649,0.168,-1.069,1444203
0.289,-0.040,-1.128,-4.000,0.153,-0.901,1448214
0.279,-0.036,-1.133,-3.893,0.626,-0.824,1452225
0.275,-0.035,-1.125,-3.710,0.718,-0.595,1456236
0.280,-0.034,-1.116,-3.679,0.901,-0.702,1460247
0.278,-0.034,-1.124,-3.450,1.298,-0.565,1464258
0.273,-0.033,-1.118,-3.359,1.359,-0.397,1468270
0.278,-0.037,-1.125,-3.206,1.496,-0.397,1472280
0.279,-0.038,-1.127,-3.191,1.557,-0.427,1476291
0.281,-0.026,-1.121,-3.069,1.695,-0.260,1480302
0.279,-0.040,-1.122,-3.191,1.802,-0.137,1484313
0.275,-0.032,-1.126,-3.038,1.359,-0.305,1488324
0.281,-0.034,-1.123,-3.191,1.282,-0.107,1492335
0.280,-0.035,-1.124,-3.389,0.947,-0.290,1496346
0.285,-0.043,-1.120,-3.573,0.611,-0.519,1500357
0.286,-0.040,-1.125,-3.771,0.061,-0.779,1504368
0.288,-0.042,-1.124,-3.969,-0.046,-0.824,1508379
0.278,-0.035,-1.125,-4.153,-0.031,-1.160,1512390
0.282,-0.040,-1.123,-4.351,-0.244,-1.069,1516401
0.273,-0.040,-1.130,-4.366,-0.046,-1.435,1520412
0.279,-0.036,-1.125,-4.443,0.031,-1.496,1524423
0.277,-0.036,-1.114,-4.519,0.168,-1.542,1528434
0.274,-0.034,-1.119,-4.580,0.336,-1.374,1532445
0.275,-0.028,-1.117,-4.351,0.687,-1.450,1536457
0.280,-0.031,-1.115,-4.122,0.733,-1.344,1540467
0.278,-0.031,-1.117,-3.863,0.962,-1.237,1544478
0.278,-0.032,-1.117,-3.573,0.916,-1.008,1548489
0.283,-0.029,-1.115,-3.328,0.977,-0.763,1552500
0.283,-0.031,-1.117,-3.160,0.962,-0.702,1556512
0.282,-0.030,-1.111,-2.962,1.023,-0.641,1560523
0.281,-0.035,-1.115,-2.687,0.992,-0.748,1564534
0.281,-0.040,-1.112,-2.534,1.023,-0.840,1568542
0.288,-0.038,-1.117,-2.458,0.901,-0.718,1572553
0.285,-0.042,-1.123,-2.611,0.855,-0.855,1576564
0.283,-0.043,-1.116,-2.794,1.038,-1.130,1580576
0.282,-0.040,-1.116,-2.733,1.221,-1.237,1584587
0.287,-0.043,-1.115,-3.038,1.267,-1.130,1588600
0.283,-0.034,-1.112,-2.809,1.313,-0.977,1592611
0.282,-0.046,-1.121,-3.053,1.466,-1.435,1596622
0.286,-0.040,-1.119,-2.947,1.450,-1.573,1600634
0.282,-0.038,-1.113,-2.763,1.481,-1.863,1604645
0.282,-0.039,-1.116,-2.824,1.298,-1.893,1608656
0.287,-0.042,-1.106,-2.748,1.267,-2.305,1612677
0.288,-0.040,-1.114,-2.870,1.008,-2.550,1616688
0.286,-0.038,-1.119,-3.313,0.809,-2.794,1620699
0.282,-0.044,-1.119,-3.282,0.397,-2.977,1624710
0.282,-0.036,-1.113,-3.344,0.382,-3.450,1628722
0.288,-0.036,-1.115,-3.267,0.397,-3.695,1632732
0.279,-0.037,-1.105,-3.191,0.137,-4.000,1636744
0.275,-0.030,-1.103,-2.824,0.153,-3.832,1640755
0.274,-0.033,-1.112,-2.748,-0.137,-3.679,1644766
0.277,-0.030,-1.116,-2.382,-0.061,-3.634,1648778
0.277,-0.026,-1.109,-2.244,-0.214,-3.344,1652790
0.270,-0.031,-1.112,-1.863,-0.244,-2.870,1656801
0.279,-0.030,-1.115,-1.786,-0.489,-2.565,1660812
0.272,-0.026,-1.112,-1.511,-0.397,-2.183,1664824
0.276,-0.032,-1.120,-1.450,-0.061,-1.863,1668835
0.275,-0.036,-1.124,-1.038,0.168,-1.603,1672846
0.277,-0.036,-1.120,-0.992,0.443,-1.511,1676857
0.263,-0.038,-1.125,-0.840,0.901,-1.389,1680868
0.270,-0.035,-1.122,-0.580,1.466,-1.328,1684879
0.272,-0.034,-1.123,-0.412,1.679,-1.328,1688890
0.279,-0.043,-1.126,-0.473,1.969,-1.145,1692902
0.287,-0.047,-1.124,-0.397,2.336,-1.313,1696914
0.288,-0.044,-1.133,-0.580,2.443,-1.695,1700924
0.282,-0.051,-1.136,-0.672,2.351,-1.740,1704935
0.292,-0.050,-1.135,-0.992,2.092,-2.107,1708946
0.295,-0.058,-1.134,-1.374,1.557,-2.611,1712966
0.295,-0.053,-1.136,-1.527,0.977,-3.023,1716977
0.302,-0.054,-1.136,-2.046,0.519,-3.618,1720988
0.302,-0.049,-1.141,-2.336,-0.122,-3.817,1724999
0.293,-0.047,-1.141,-2.687,-0.809,-3.985,1729010
0.294,-0.047,-1.145,-2.947,-1.481,-4.260,1733030
0.292,-0.048,-1.132,-3.237,-1.649,-4.260,1737041
0.288,-0.044,-1.138,-3.496,-2.244,-4.000,1741052
0.281,-0.042,-1.142,-3.527,-2.473,-3.939,1745064
0.280,-0.038,-1.142,-3.664,-2.122,-3.618,1749075
0.272,-0.040,-1.138,-3.847,-1.679,-3.420,1753093
0.266,-0.040,-1.132,-4.061,-1.160,-3.313,1757104
0.256,-0.039,-1.133,-4.061,-0.595,-3.084,1761116
0.266,-0.042,-1.131,-4.046,0.305,-2.473,1765126
0.260,-0.038,-1.131,-4.275,0.870,-2.260,1769137
0.260,-0.037,-1.129,-4.153,1.756,-1.618,1773147
0.262,-0.032,-1.130,-4.122,2.229,-1.389,1777159
0.260,-0.036,-1.122,-3.832,2.626,-0.962,1781170
0.266,-0.031,-1.134,-3.863,2.763,-0.687,1785182
0.281,-0.042,-1.117,-3.588,2.977,-0.244,1789193
0.280,-0.040,-1.124,-3.710,2.489,-0.351,1793213
0.282,-0.040,-1.126,-3.557,2.107,-0.412,1797224
0.294,-0.042,-1.127,-3.756,1.511,-0.290,1801235
0.291,-0.042,-1.116,-4.046,0.840,-0.519,1805246
0.293,-0.050,-1.121,-4.183,0.260,-0.916,1809257
0.289,-0.044,-1.127,-4.382,-0.260,-1.527,1813277
0.282,-0.044,-1.126,-4.947,-0.656,-1.802,1817288
0.288,-0.047,-1.114,-5.145,-0.931,-2.275,1821299
0.284,-0.045,-1.122,-5.511,-1.099,-2.794,1825311
0.281,-0.046,-1.118,-5.481,-1.145,-3.115,1829322
0.282,-0.040,-1.110,-5.466,-1.053,-3.237,1833340
0.281,-0.035,-1.108,-5.344,-0.962,-3.206,1837350
0.285,-0.035,-1.115,-4.901,-0.794,-3.313,1841361
0.282,-0.031,-1.111,-4.672,-0.794,-3.282,1845372
0.280,-0.031,-1.108,-4.366,-0.840,-2.885,1849383
0.285,-0.032,-1.109,-3.847,-0.718,-2.824,1853394
0.280,-0.032,-1.109,-3.756,-0.534,-2.519,1857405
0.273,-0.039,-1.112,-3.557,0.031,-2.168,1861416
0.271,-0.034,-1.115,-3.221,-0.076,-2.076,1865427
0.275,-0.035,-1.105,-2.992,0.336,-1.802,1869439
0.271,-0.030,-1.115,-2.763,0.641,-1.710,1873450
0.274,-0.034,-1.111,-2.595,0.931,-1.450,1877461
0.267,-0.030,-1.114,-2.397,1.160,-1.328,1881472
0.271,-0.039,-1.102,-2.412,1.328,-0.870,1885483
0.280,-0.032,-1.118,-2.305,1.328,-0.870,1889494
0.275,-0.036,-1.107,-2.305,1.344,-0.916,1893504
0.281,-0.039,-1.110,-1.969,1.282,-0.748,1897515
0.286,-0.034,-1.111,-2.061,1.038,-0.931,1901526
0.286,-0.036,-1.112,-2.107,0.687,-0.718,1905537
0.285,-0.032,-1.112,-2.076,0.565,-0.992,1909548
0.292,-0.040,-1.113,-1.939,0.290,-1.069,1913559
0.288,-0.034,-1.122,-1.954,0.000,-1.084,1917571
0.287,-0.034,-1.119,-2.214,-0.244,-1.389,1921582
0.289,-0.037,-1.118,-2.122,-0.336,-1.496,1925594
0.290,-0.038,-1.122,-2.443,-0.092,-2.000,1929605
0.288,-0.042,-1.122,-2.672,-0.046,-2.397,1933625
0.290,-0.042,-1.120,-2.855,-0.061,-2.443,1937635
0.288,-0.042,-1.133,-3.038,-0.015,-2.489,1941646
0.293,-0.045,-1.124,-3.328,0.198,-2.580,1945657
0.291,-0.041,-1.127,-3.466,0.122,-2.885,1949668
0.289,-0.042,-1.128,-3.817,0.290,-2.855,1953688
0.287,-0.039,-1.123,-3.771,0.412,-2.779,1957699
0.283,-0.037,-1.125,-3.802,0.763,-2.794,1961710
0.283,-0.036,-1.124,-3.893,0.840,-2.641,1965721
0.287,-0.034,-1.126,-3.573,1.176,-2.595,1969732
0.281,-0.037,-1.128,-3.832,1.344,-2.458,1973746
0.279,-0.031,-1.127,-3.740,1.481,-2.244,1977756
0.276,-0.031,-1.127,-3.847,1.710,-1.985,1981767
0.278,-0.035,-1.131,-3.847,1.634,-2.015,1985778
0.284,-0.036,-1.125,-3.969,1.710,-1.893,1989789
0.282,-0.036,-1.119,-4.183,1.710,-1.740,1993801
0.276,-0.037,-1.116,-4.336,1.756,-1.664,1997812
0.281,-0.035,-1.124,-4.794,1.573,-1.435,2001823
