acc_x,acc_y,acc_z,gyro_x,gyro_y,gyro_z,time
0.272,-0.239,-1.099,-4.748,1.008,-1.176,0
0.283,-0.241,-1.094,-4.412,1.374,-1.160,4051
0.282,-0.240,-1.099,-4.076,1.710,-1.130,8064
0.284,-0.238,-1.094,-3.802,1.817,-0.870,12075
0.287,-0.242,-1.097,-3.588,1.649,-0.916,16086
0.292,-0.244,-1.099,-3.603,1.466,-0.656,20097
0.295,-0.251,-1.102,-3.802,1.023,-0.443,24108
0.295,-0.250,-1.094,-3.969,0.305,-0.321,28119
0.297,-0.253,-1.099,-4.107,-0.183,-0.061,32131
0.291,-0.247,-1.096,-4.168,-0.595,-0.198,36142
0.291,-0.248,-1.101,-4.366,-1.053,-0.214,40154
0.292,-0.252,-1.088,-4.336,-1.160,-0.290,44165
0.296,-0.261,-1.104,-4.565,-1.374,-0.366,48173
0.296,-0.255,-1.103,-5.130,-1.878,-0.595,52184
0.294,-0.256,-1.112,-5.527,-2.275,-0.763,56195
0.300,-0.256,-1.103,-5.802,-2.565,-0.931,60206
0.292,-0.254,-1.099,-5.817,-2.489,-0.794,64217
0.296,-0.250,-1.097,-5.725,-2.336,-0.809,68229
0.284,-0.249,-1.099,-5.588,-2.092,-0.672,72240
0.284,-0.246,-1.110,-5.420,-1.649,-0.916,76251
0.281,-0.250,-1.101,-5.359,-1.237,-1.282,80262
0.279,-0.248,-1.103,-5.282,-0.641,-1.527,84273
0.280,-0.250,-1.093,-5.237,-0.107,-1.679,88285
0.284,-0.247,-1.087,-5.282,0.489,-1.710,92296
0.277,-0.242,-1.088,-5.099,1.237,-1.786,96308
0.274,-0.244,-1.086,-4.779,1.679,-1.954,100318
0.279,-0.241,-1.077,-4.626,2.427,-2.137,104329
0.275,-0.240,-1.086,-4.412,2.794,-2.321,108340
0.277,-0.241,-1.089,-4.336,3.267,-2.397,112351
0.288,-0.240,-1.089,-4.107,3.298,-2.412,116362
0.292,-0.243,-1.089,-4.321,2.947,-2.443,120373
0.301,-0.247,-1.092,-4.290,2.351,-2.229,124384
0.306,-0.250,-1.092,-4.305,1.679,-1.985,128394
0.301,-0.257,-1.082,-4.611,0.748,-1.496,132405
0.308,-0.248,-1.093,-4.809,-0.534,-1.420,136416
0.305,-0.249,-1.090,-4.885,-1.817,-1.252,140427
0.304,-0.245,-1.091,-5.084,-2.672,-1.069,144438
0.300,-0.243,-1.098,-5.099,-3.603,-0.947,148448
0.288,-0.247,-1.089,-5.237,-3.969,-0.870,152459
0.287,-0.248,-1.083,-5.053,-4.107,-1.115,156470
0.274,-0.251,-1.090,-4.901,-3.878,-0.962,160481
0.275,-0.243,-1.088,-4.687,-3.313,-0.977,164492
0.274,-0.244,-1.087,-4.611,-2.824,-1.084,168503
0.264,-0.237,-1.084,-4.260,-1.954,-1.084,172514
0.264,-0.233,-1.079,-3.863,-0.992,-1.099,176525
0.260,-0.241,-1.092,-3.435,0.382,-1.130,180537
0.257,-0.234,-1.080,-2.504,1.450,-1.145,184548
0.254,-0.240,-1.086,-2.015,2.748,-0.947,188558
0.255,-0.234,-1.086,-1.206,3.924,-0.870,192569
0.255,-0.243,-1.088,-0.504,5.191,-0.580,196581
0.256,-0.233,-1.095,0.275,5.939,-0.504,200592
0.259,-0.232,-1.089,1.038,6.641,-0.275,204603
0.261,-0.239,-1.095,1.679,7.511,-0.366,208615
0.262,-0.238,-1.088,2.519,7.664,-0.076,212626
0.264,-0.241,-1.101,3.191,7.878,0.366,216637
0.278,-0.249,-1.101,3.649,7.679,0.534,220648
0.298,-0.259,-1.093,3.817,7.206,0.641,224659
0.306,-0.265,-1.108,3.832,6.015,0.748,228671
0.317,-0.270,-1.105,3.282,4.611,0.809,232690
0.318,-0.270,-1.102,2.748,3.130,0.977,236701
0.327,-0.282,-1.105,2.031,1.435,0.962,240712
0.328,-0.283,-1.107,0.931,-0.687,0.672,244723
0.317,-0.279,-1.102,-0.061,-2.427,0.931,248737
0.324,-0.281,-1.106,-0.901,-4.015,1.008,252748
0.311,-0.278,-1.098,-1.893,-5.252,0.840,256760
0.306,-0.278,-1.100,-2.565,-6.107,0.885,260770
0.303,-0.265,-1.092,-3.115,-6.702,0.794,264781
0.292,-0.262,-1.104,-3.756,-6.901,0.489,268794
0.290,-0.262,-1.095,-4.244,-6.565,0.061,272805
0.272,-0.256,-1.088,-4.198,-6.565,-0.153,276816
0.258,-0.245,-1.091,-4.031,-5.496,-0.198,280827
0.260,-0.237,-1.099,-3.435,-4.290,-0.458,284838
0.259,-0.236,-1.084,-2.870,-3.008,-0.809,288849
0.258,-0.234,-1.084,-2.382,-1.679,-1.237,292859
0.254,-0.235,-1.090,-1.496,-0.214,-1.450,296871
0.254,-0.235,-1.092,-0.718,1.191,-1.588,300882
0.257,-0.238,-1.093,0.031,2.290,-1.496,304893
0.262,-0.246,-1.095,0.534,3.237,-1.344,308905
0.269,-0.241,-1.090,1.191,3.450,-1.191,312915
0.278,-0.244,-1.095,1.634,3.603,-1.023,316926
0.292,-0.249,-1.103,1.756,3.252,-0.977,320937
0.290,-0.254,-1.101,1.817,2.565,-0.718,324948
0.302,-0.255,-1.113,1.573,2.000,-0.855,328959
0.301,-0.259,-1.098,1.542,0.687,-0.870,332979
0.306,-0.268,-1.106,0.824,-0.290,-1.008,336991
0.321,-0.260,-1.110,0.458,-1.756,-1.008,341002
0.322,-0.272,-1.112,-0.534,-2.840,-1.481,345013
0.321,-0.271,-1.102,-1.649,-4.168,-1.878,349024
0.303,-0.265,-1.107,-2.397,-5.710,-1.939,353045
0.303,-0.265,-1.102,-3.023,-6.382,-1.939,357056
0.302,-0.262,-1.102,-3.389,-7.053,-2.107,361067
0.293,-0.253,-1.100,-3.954,-7.374,-2.275,365079
0.286,-0.253,-1.113,-4.107,-7.252,-2.336,369090
0.278,-0.248,-1.103,-4.214,-6.870,-2.412,373103
0.274,-0.246,-1.099,-4.351,-6.595,-2.519,377115
0.273,-0.243,-1.110,-4.046,-5.618,-2.672,381125
0.269,-0.240,-1.103,-3.771,-4.748,-2.427,385136
0.275,-0.232,-1.098,-3.374,-3.985,-2.290,389148
0.267,-0.237,-1.098,-2.794,-3.008,-2.458,393160
0.266,-0.241,-1.101,-2.153,-2.260,-2.336,397170
0.268,-0.238,-1.096,-1.405,-1.298,-2.412,401181
0.267,-0.226,-1.108,-0.840,-0.794,-2.397,405192
0.275,-0.234,-1.108,-0.336,-0.290,-2.366,409203
0.286,-0.237,-1.104,-0.244,0.107,-2.382,413224
0.289,-0.241,-1.112,-0.076,0.046,-2.473,417235
0.288,-0.251,-1.104,-0.015,-0.183,-2.550,421246
0.292,-0.249,-1.117,-0.198,-0.443,-2.504,425257
0.293,-0.249,-1.118,-0.534,-1.069,-2.916,429268
0.293,-0.251,-1.111,-0.733,-1.588,-2.992,433289
0.301,-0.253,-1.114,-1.298,-1.985,-2.870,437300
0.289,-0.257,-1.109,-1.344,-2.366,-3.420,441311
0.281,-0.252,-1.113,-1.908,-2.534,-3.420,445322
0.286,-0.250,-1.105,-2.137,-2.641,-3.542,449333
0.285,-0.254,-1.114,-2.626,-2.443,-3.344,453351
0.275,-0.255,-1.119,-3.023,-2.198,-3.298,457362
0.287,-0.257,-1.113,-3.344,-2.092,-3.191,461373
0.290,-0.255,-1.122,-3.908,-2.092,-3.160,465385
0.296,-0.265,-1.122,-4.107,-2.153,-3.008,469396
0.291,-0.262,-1.120,-4.580,-2.183,-3.023,473407
0.292,-0.258,-1.115,-4.855,-2.015,-3.176,477418
0.286,-0.252,-1.119,-5.313,-1.939,-3.496,481429
0.286,-0.249,-1.118,-5.466,-1.832,-3.634,485440
0.279,-0.247,-1.120,-5.817,-1.786,-3.832,489451
0.272,-0.238,-1.123,-5.893,-1.450,-3.832,493462
0.276,-0.236,-1.113,-5.817,-0.885,-3.649,497473
0.270,-0.235,-1.118,-5.695,-0.260,-3.298,501484
0.271,-0.230,-1.109,-5.252,0.076,-2.855,505496
0.281,-0.233,-1.110,-4.870,0.336,-2.840,509507
0.275,-0.238,-1.114,-4.427,0.702,-2.580,513517
0.279,-0.234,-1.105,-4.137,0.702,-2.427,517528
0.284,-0.236,-1.117,-3.878,0.565,-2.336,521539
0.287,-0.247,-1.110,-3.969,0.550,-2.260,525550
0.284,-0.241,-1.111,-3.924,0.076,-2.519,529561
0.278,-0.246,-1.108,-3.924,-0.061,-2.427,533572
0.284,-0.242,-1.106,-4.046,-0.122,-2.550,537583
0.283,-0.247,-1.111,-4.198,-0.382,-2.443,541594
0.273,-0.249,-1.105,-4.504,-0.626,-2.550,545605
0.270,-0.252,-1.105,-5.221,-0.656,-2.412,549616
0.273,-0.251,-1.103,-5.496,-0.702,-2.351,553637
0.275,-0.247,-1.110,-5.740,-0.489,-2.351,557649
0.268,-0.242,-1.109,-6.183,-0.733,-2.229,561660
0.273,-0.254,-1.103,-6.550,-0.397,-2.244,565671
0.268,-0.248,-1.099,-6.870,-0.427,-2.198,569682
0.269,-0.250,-1.105,-7.145,-0.260,-2.153,573703
0.266,-0.253,-1.108,-7.496,-0.046,-2.244,577714
0.258,-0.244,-1.099,-7.679,0.489,-2.122,581725
0.254,-0.246,-1.105,-7.740,0.824,-2.214,585736
0.247,-0.251,-1.108,-8.229,1.527,-2.382,589747
0.235,-0.246,-1.092,-8.626,2.153,-2.550,593757
0.231,-0.244,-1.092,-8.824,3.405,-2.595,597768
0.220,-0.241,-1.098,-9.267,4.504,-2.489,601779
0.222,-0.244,-1.097,-9.695,6.000,-2.244,605791
0.216,-0.239,-1.099,-9.908,7.496,-2.275,609802
0.204,-0.241,-1.103,-10.275,9.344,-2.137,613812
0.199,-0.239,-1.104,-10.473,11.374,-1.985,617823
0.184,-0.239,-1.111,-10.794,14.137,-1.878,621834
0.173,-0.249,-1.098,-11.939,16.947,-2.153,625846
0.155,-0.254,-1.101,-13.221,20.702,-3.023,629857
0.125,-0.256,-1.102,-14.275,26.122,-3.817,633877
0.109,-0.268,-1.110,-16.626,31.832,-5.008,637889
0.097,-0.285,-1.100,-20.718,38.962,-7.359,641901
0.086,-0.294,-1.085,-24.809,48.305,-10.244,645912
0.056,-0.303,-1.090,-29.038,60.351,-13.588,649924
0.013,-0.290,-1.091,-32.000,73.786,-16.519,653935
-0.037,-0.292,-1.078,-35.160,90.748,-19.359,657946
-0.101,-0.286,-1.051,-37.527,110.718,-22.931,661957
-0.179,-0.268,-1.056,-39.145,136.198,-26.427,665968
-0.274,-0.234,-1.015,-37.084,169.282,-29.496,669979
-0.338,-0.170,-0.980,-32.840,208.840,-31.924,673990
-0.396,-0.125,-0.930,-26.931,256.947,-34.885,678002
-0.432,-0.086,-0.871,-20.565,307.618,-37.924,682013
-0.431,-0.065,-0.823,-13.221,354.305,-40.504,686025
-0.429,-0.046,-0.767,-5.481,404.489,-45.679,690036
-0.418,-0.026,-0.699,4.321,455.603,-52.595,694047
-0.401,0.010,-0.617,15.450,500.260,-58.565,698059
-0.375,0.018,-0.530,26.809,500.260,-62.168,702069
-0.336,0.025,-0.433,38.015,500.260,-65.099,706080
-0.258,0.026,-0.286,50.397,500.260,-67.710,710091
-0.151,-0.009,-0.188,60.580,500.260,-68.519,714102
-0.021,-0.052,-0.087,67.603,500.260,-68.504,718108
0.096,-0.077,-0.008,75.435,500.260,-67.435,722119
0.181,-0.105,0.109,80.443,500.260,-66.565,726130
0.263,-0.115,0.196,85.160,500.260,-64.550,730141
0.335,-0.119,0.286,91.099,500.260,-63.053,734152
0.445,-0.131,0.426,96.397,500.260,-63.084,738158
0.534,-0.164,0.527,99.176,500.260,-66.443,742169
0.618,-0.202,0.657,100.977,500.260,-71.069,746180
0.725,-0.232,0.745,101.084,500.260,-76.473,750191
0.833,-0.252,0.871,97.969,500.260,-82.702,754202
0.941,-0.271,0.972,90.947,500.260,-90.931,758214
1.031,-0.281,1.058,83.115,500.260,-98.046,762225
1.145,-0.265,1.106,77.328,500.260,-104.626,766237
1.281,-0.279,1.148,68.412,500.260,-108.290,770248
1.433,-0.322,1.168,55.527,500.260,-109.588,774259
1.656,-0.324,1.135,37.405,500.260,-115.099,778271
1.808,-0.330,1.088,17.252,500.260,-119.939,782282
1.891,-0.339,1.046,-5.542,500.260,-129.679,786294
1.976,-0.329,1.003,-27.969,500.260,-134.885,790304
2.117,-0.315,0.822,-46.550,500.260,-124.702,794315
2.202,-0.288,0.692,-63.420,500.260,-112.092,798326
2.216,-0.278,0.631,-78.489,500.260,-104.031,802337
2.166,-0.244,0.565,-92.992,500.260,-91.374,806348
2.124,-0.173,0.509,-102.458,500.260,-82.794,810359
2.064,-0.111,0.457,-110.137,500.260,-73.939,814370
2.010,-0.073,0.441,-115.649,492.427,-66.244,818380
1.889,-0.074,0.525,-121.985,437.573,-59.664,822391
1.801,-0.053,0.562,-116.015,367.603,-52.870,826402
1.704,0.002,0.516,-114.366,310.977,-50.046,830413
1.577,0.014,0.576,-107.511,255.496,-47.557,834424
1.496,0.029,0.573,-98.977,198.702,-45.939,838435
1.441,0.042,0.643,-91.618,154.198,-47.450,842446
1.406,0.033,0.694,-85.908,123.344,-51.786,846456
1.390,-0.007,0.713,-80.366,87.313,-57.573,850467
1.374,-0.068,0.702,-74.336,43.328,-61.359,854479
1.357,-0.104,0.736,-68.229,2.565,-63.099,858490
1.351,-0.122,0.747,-61.695,-39.511,-64.565,862501
1.330,-0.121,0.768,-54.443,-83.069,-65.282,866512
1.315,-0.118,0.775,-47.405,-128.641,-65.817,870523
1.288,-0.109,0.806,-40.763,-174.382,-67.008,874534
1.262,-0.112,0.823,-34.641,-220.351,-68.168,878546
1.224,-0.123,0.846,-29.115,-262.137,-67.359,882557
1.200,-0.147,0.885,-24.916,-299.282,-63.924,886568
1.208,-0.185,0.922,-23.282,-333.267,-58.626,890579
1.261,-0.220,0.944,-22.504,-357.160,-52.214,894590
1.329,-0.258,0.962,-20.794,-393.710,-44.947,898602
1.401,-0.288,0.993,-19.740,-429.206,-38.229,902613
1.480,-0.296,1.016,-19.389,-467.328,-31.481,906624
1.575,-0.277,1.043,-18.962,-500.275,-24.183,910635
1.639,-0.244,1.054,-18.183,-500.275,-16.733,914646
1.699,-0.209,1.063,-18.000,-500.275,-8.534,918658
1.749,-0.187,1.081,-17.939,-500.275,-1.176,922679
1.769,-0.162,1.108,-16.794,-500.275,5.664,926690
1.751,-0.128,1.124,-14.702,-500.275,12.382,930701
1.719,-0.100,1.126,-12.412,-500.275,19.053,934712
1.691,-0.072,1.134,-9.969,-500.275,24.977,938723
1.653,-0.044,1.134,-6.275,-500.275,30.183,942736
1.617,-0.012,1.110,-2.275,-500.275,34.947,946747
1.574,0.013,1.088,1.389,-500.275,39.130,950758
1.516,0.043,1.066,5.542,-500.275,43.466,954769
1.472,0.065,1.031,9.221,-500.275,46.305,958781
1.439,0.085,1.021,12.382,-500.275,46.763,962792
1.387,0.092,0.954,16.031,-500.275,44.336,966804
1.324,0.092,0.915,19.969,-500.275,39.847,970815
1.259,0.092,0.872,22.824,-500.275,33.588,974826
1.192,0.078,0.842,24.183,-500.275,25.710,978837
1.115,0.048,0.782,24.885,-500.275,16.687,982847
1.044,0.012,0.747,26.031,-500.275,5.740,986858
0.965,-0.028,0.685,26.626,-500.275,-4.779,990869
0.884,-0.061,0.645,26.290,-500.275,-14.672,994880
0.767,-0.111,0.586,25.176,-500.275,-25.115,998892
0.653,-0.142,0.535,23.832,-500.275,-35.115,1002902
0.522,-0.183,0.446,21.481,-500.275,-44.473,1006913
0.378,-0.221,0.361,18.855,-500.275,-50.962,1010924
0.211,-0.245,0.274,15.725,-500.275,-52.198,1014935
0.011,-0.238,0.175,11.786,-500.275,-46.809,1018946
-0.245,-0.220,0.049,8.702,-500.275,-36.000,1022967
-0.432,-0.198,-0.046,5.588,-500.275,-24.260,1026978
-0.603,-0.161,-0.158,4.336,-500.275,-11.053,1030989
-0.765,-0.127,-0.253,5.298,-500.275,2.321,1035001
-0.910,-0.097,-0.387,6.229,-500.275,18.916,1039012
-1.017,-0.040,-0.477,9.939,-467.221,33.557,1043033
-1.059,0.034,-0.588,14.718,-398.321,42.458,1047043
-1.108,0.089,-0.637,22.763,-323.756,46.366,1051054
-1.098,0.128,-0.744,31.160,-253.511,48.198,1055065
-1.058,0.158,-0.809,41.191,-187.649,46.733,1059076
-0.953,0.162,-0.856,50.962,-130.550,44.122,1063087
-0.811,0.139,-0.926,60.107,-78.168,39.481,1067098
-0.656,0.094,-0.961,67.557,-34.595,34.321,1071109
-0.492,0.037,-1.003,74.473,4.718,28.702,1075120
-0.281,-0.025,-1.055,79.634,37.664,23.008,1079131
-0.098,-0.086,-1.090,82.397,63.084,16.489,1083141
0.090,-0.151,-1.113,81.725,83.878,9.588,1087152
0.253,-0.221,-1.115,77.756,108.504,-0.198,1091163
0.158,-0.148,-1.184,71.740,115.542,-31.695,1095174
0.595,-0.329,-1.215,67.084,113.237,-13.115,1099185
0.696,-0.364,-1.234,59.817,100.137,-16.947,1103198
0.771,-0.416,-1.270,48.473,63.435,-14.336,1107209
0.810,-0.432,-1.271,38.763,40.076,-14.779,1111220
0.821,-0.444,-1.289,28.962,3.725,-14.809,1115231
0.814,-0.433,-1.290,19.618,-22.397,-14.962,1119242
0.800,-0.429,-1.291,11.527,-46.351,-15.084,1123262
0.764,-0.408,-1.274,5.237,-69.481,-14.260,1127274
0.698,-0.378,-1.282,0.336,-93.466,-13.038,1131285
0.614,-0.345,-1.265,-3.237,-110.076,-11.542,1135296
0.546,-0.324,-1.225,-6.702,-113.679,-10.366,1139307
0.474,-0.300,-1.209,-8.519,-110.076,-9.435,1143327
0.390,-0.275,-1.204,-8.885,-111.145,-8.748,1147338
0.308,-0.259,-1.190,-8.504,-107.511,-8.000,1151349
0.250,-0.239,-1.179,-7.649,-104.687,-6.641,1155360
0.175,-0.229,-1.160,-5.924,-98.595,-5.359,1159371
0.120,-0.217,-1.158,-3.405,-88.534,-4.061,1163385
0.082,-0.209,-1.154,-0.534,-77.725,-3.191,1167396
0.054,-0.206,-1.146,1.954,-64.779,-2.336,1171407
0.037,-0.207,-1.135,3.969,-49.435,-2.153,1175418
0.037,-0.220,-1.139,5.618,-33.359,-1.969,1179429
0.048,-0.228,-1.142,7.038,-17.771,-1.863,1183440
0.050,-0.233,-1.129,8.015,-1.954,-1.802,1187451
0.112,-0.236,-1.129,8.565,6.351,-4.641,1191462
0.146,-0.243,-1.137,8.550,15.420,-7.603,1195473
0.188,-0.251,-1.148,8.641,24.992,-9.954,1199484
0.231,-0.268,-1.158,8.015,31.450,-10.840,1203495
0.269,-0.290,-1.143,6.840,35.802,-11.038,1207506
0.294,-0.302,-1.142,5.084,39.466,-10.916,1211518
0.319,-0.317,-1.139,3.405,41.328,-10.260,1215528
0.347,-0.321,-1.139,1.359,40.275,-9.985,1219539
0.366,-0.330,-1.147,-1.069,39.298,-9.588,1223549
0.403,-0.336,-1.145,-3.985,36.916,-9.267,1227561
0.428,-0.340,-1.147,-7.511,32.351,-9.450,1231572
0.445,-0.345,-1.151,-11.237,25.771,-9.893,1235583
0.455,-0.350,-1.160,-14.779,14.489,-10.076,1239594
0.459,-0.353,-1.145,-18.031,5.038,-9.740,1243614
0.459,-0.346,-1.137,-21.435,-3.313,-9.649,1247624
0.446,-0.335,-1.134,-24.458,-11.069,-9.924,1251636
0.427,-0.312,-1.120,-26.901,-17.618,-10.916,1255647
0.399,-0.286,-1.103,-28.305,-23.374,-11.908,1259658
0.378,-0.257,-1.103,-29.084,-27.649,-12.824,1263679
0.340,-0.237,-1.087,-29.069,-29.740,-13.603,1267691
0.303,-0.222,-1.082,-28.550,-30.733,-14.107,1271702
0.264,-0.213,-1.069,-27.420,-30.672,-13.756,1275713
0.240,-0.204,-1.055,-25.573,-29.038,-12.992,1279724
0.204,-0.199,-1.049,-23.405,-25.374,-12.198,1283735
0.185,-0.191,-1.047,-20.489,-21.298,-10.733,1287746
0.160,-0.178,-1.040,-17.328,-15.328,-9.664,1291758
0.144,-0.157,-1.029,-14.031,-9.252,-8.550,1295769
0.143,-0.163,-1.031,-10.290,-2.122,-7.878,1299780
0.147,-0.159,-1.029,-7.084,4.260,-7.237,1303790
0.167,-0.170,-1.032,-4.595,9.756,-7.115,1307801
0.193,-0.177,-1.040,-2.672,13.664,-7.298,1311812
0.213,-0.198,-1.039,-1.359,17.069,-7.969,1315823
0.239,-0.208,-1.052,-0.397,19.344,-8.427,1319834
0.254,-0.207,-1.043,0.183,20.473,-8.931,1323854
0.267,-0.216,-1.050,0.473,20.427,-9.496,1327865
0.287,-0.221,-1.056,0.672,19.954,-10.137,1331876
0.306,-0.232,-1.060,0.443,18.504,-10.626,1335887
0.335,-0.243,-1.067,-0.580,16.489,-11.069,1339898
0.355,-0.260,-1.070,-1.939,13.664,-11.710,1343918
0.366,-0.265,-1.083,-3.679,10.092,-11.878,1347928
0.371,-0.270,-1.080,-5.542,5.817,-11.756,1351939
0.377,-0.261,-1.090,-7.344,1.206,-11.603,1355950
0.362,-0.251,-1.083,-8.779,-3.496,-11.359,1359962
0.337,-0.244,-1.079,-9.725,-7.130,-10.870,1363973
0.314,-0.233,-1.082,-10.260,-9.771,-10.427,1367985
0.291,-0.227,-1.080,-10.458,-11.725,-10.061,1371995
0.276,-0.211,-1.070,-10.183,-12.748,-9.969,1376006
0.261,-0.200,-1.074,-9.496,-12.305,-9.725,1380017
0.242,-0.192,-1.065,-8.595,-11.115,-9.542,1384028
0.220,-0.186,-1.068,-7.252,-9.359,-9.115,1388039
0.216,-0.185,-1.067,-5.863,-7.176,-8.427,1392050
0.205,-0.184,-1.070,-4.260,-5.221,-7.725,1396061
0.207,-0.184,-1.071,-2.794,-2.855,-7.344,1400073
0.210,-0.189,-1.068,-1.191,-0.840,-6.718,1404084
0.218,-0.187,-1.075,0.504,1.405,-6.412,1408095
0.224,-0.190,-1.072,2.214,3.435,-5.496,1412106
0.246,-0.195,-1.079,3.511,5.099,-4.870,1416117
0.254,-0.203,-1.084,4.565,6.229,-4.473,1420128
0.272,-0.212,-1.085,5.252,6.519,-3.863,1424139
0.282,-0.220,-1.092,5.756,6.198,-3.649,1428152
0.288,-0.231,-1.093,5.695,5.511,-3.420,1432163
0.300,-0.234,-1.099,5.527,4.137,-3.359,1436174
0.308,-0.247,-1.105,5.008,2.412,-3.405,1440185
0.318,-0.250,-1.111,4.214,0.916,-3.344,1444196
0.315,-0.257,-1.112,3.405,-1.084,-3.282,1448207
0.331,-0.259,-1.114,1.969,-2.840,-3.221,1452219
0.325,-0.258,-1.119,0.336,-4.718,-3.145,1456229
0.324,-0.256,-1.122,-1.038,-6.366,-3.206,1460240
0.313,-0.261,-1.121,-2.351,-7.939,-2.931,1464251
0.306,-0.253,-1.113,-3.313,-8.977,-3.191,1468263
0.297,-0.248,-1.117,-4.061,-9.557,-2.916,1472274
0.288,-0.237,-1.113,-4.702,-10.061,-3.084,1476285
0.285,-0.234,-1.117,-5.221,-10.122,-3.023,1480296
0.285,-0.228,-1.120,-5.405,-10.183,-2.901,1484307
0.278,-0.225,-1.110,-5.450,-9.389,-2.824,1488319
0.266,-0.214,-1.111,-5.176,-8.595,-2.504,1492330
0.264,-0.213,-1.101,-4.443,-7.466,-2.107,1496341
0.256,-0.209,-1.104,-3.496,-6.198,-1.878,1500352
0.263,-0.202,-1.104,-2.229,-4.626,-1.344,1504363
0.256,-0.196,-1.101,-0.733,-3.069,-1.084,1508370
0.266,-0.191,-1.098,0.901,-1.710,-0.687,1512381
0.263,-0.195,-1.096,2.168,-0.824,-0.290,1516392
0.277,-0.206,-1.101,3.328,0.000,-0.260,1520404
0.283,-0.209,-1.115,4.137,0.290,-0.061,1524415
0.285,-0.223,-1.105,4.702,0.763,0.260,1528425
0.290,-0.224,-1.107,4.824,0.977,0.275,1532436
0.284,-0.234,-1.108,4.687,1.359,0.183,1536447
0.286,-0.231,-1.114,4.565,1.466,0.137,1540458
0.291,-0.229,-1.119,4.260,2.061,0.137,1544469
0.295,-0.239,-1.124,3.802,2.229,-0.061,1548480
0.296,-0.242,-1.119,3.053,2.443,-0.015,1552491
0.301,-0.245,-1.117,2.107,2.412,0.137,1556502
0.306,-0.251,-1.121,0.763,2.214,0.214,1560513
0.309,-0.256,-1.120,-0.641,1.863,0.092,1564524
0.317,-0.257,-1.120,-2.015,1.176,0.031,1568535
0.318,-0.248,-1.118,-3.313,0.244,-0.122,1572546
0.327,-0.251,-1.122,-4.321,-0.550,-0.427,1576557
0.319,-0.241,-1.118,-5.374,-1.420,-0.901,1580568
0.316,-0.238,-1.117,-6.046,-2.076,-0.992,1584579
0.312,-0.228,-1.128,-6.397,-2.489,-1.038,1588590
0.298,-0.227,-1.128,-6.550,-2.626,-1.176,1592601
0.301,-0.222,-1.115,-6.031,-2.382,-1.237,1596612
0.294,-0.215,-1.108,-5.542,-2.031,-1.252,1600624
0.288,-0.215,-1.108,-5.099,-1.084,-1.145,1604635
0.284,-0.207,-1.107,-4.382,-0.290,-1.160,1608646
0.278,-0.201,-1.098,-3.634,0.931,-1.160,1612667
0.267,-0.201,-1.105,-2.870,1.908,-1.328,1616678
0.271,-0.197,-1.102,-1.939,3.282,-1.221,1620689
0.272,-0.202,-1.099,-1.130,4.412,-1.221,1624700
0.276,-0.208,-1.113,-0.351,5.344,-0.855,1628713
0.285,-0.208,-1.101,-0.214,5.832,-0.489,1632724
0.293,-0.218,-1.109,0.061,6.137,-0.427,1636735
0.294,-0.225,-1.108,-0.153,5.817,0.107,1640746
0.305,-0.220,-1.096,-0.229,5.603,0.122,1644757
0.310,-0.220,-1.098,-0.427,4.992,0.412,1648768
0.308,-0.226,-1.107,-0.748,4.336,0.748,1652780
0.314,-0.226,-1.108,-0.855,3.511,0.763,1656790
0.316,-0.224,-1.095,-1.282,2.580,0.763,1660801
0.314,-0.222,-1.103,-1.832,1.954,0.779,1664812
0.321,-0.220,-1.100,-2.412,1.023,0.473,1668824
0.307,-0.222,-1.098,-3.176,0.397,0.153,1672835
0.314,-0.226,-1.092,-3.740,-0.061,-0.168,1676846
0.310,-0.221,-1.094,-4.397,-0.489,-0.351,1680857
0.311,-0.226,-1.096,-4.763,-0.824,-0.748,1684868
0.302,-0.225,-1.088,-5.176,-1.084,-1.099,1688879
0.304,-0.226,-1.095,-5.481,-1.023,-1.053,1692889
0.299,-0.222,-1.103,-5.466,-1.176,-1.176,1696900
0.292,-0.214,-1.103,-5.420,-0.733,-1.328,1700911
0.289,-0.215,-1.097,-5.282,-0.443,-1.282,1704922
0.284,-0.213,-1.095,-4.947,-0.107,-0.885,1708934
0.288,-0.218,-1.089,-4.443,0.550,-0.718,1712954
0.284,-0.210,-1.104,-4.076,0.687,-0.534,1716966
0.297,-0.214,-1.092,-4.046,0.901,-0.595,1720976
0.296,-0.217,-1.104,-4.000,1.084,-0.427,1724987
0.295,-0.217,-1.098,-3.908,1.191,-0.336,1728999
0.298,-0.223,-1.094,-3.603,1.069,-0.366,1733019
0.300,-0.226,-1.098,-3.420,1.313,-0.092,1737030
0.303,-0.224,-1.095,-3.115,1.160,-0.137,1741041
0.304,-0.225,-1.107,-3.160,1.053,-0.183,1745052
0.305,-0.230,-1.102,-3.069,1.008,-0.153,1749063
0.303,-0.229,-1.098,-3.328,0.962,-0.153,1753081
0.314,-0.231,-1.109,-3.298,0.794,-0.137,1757092
0.307,-0.233,-1.103,-3.405,0.748,-0.351,1761104
0.311,-0.226,-1.101,-3.557,0.565,-0.336,1765114
0.310,-0.232,-1.108,-3.634,0.794,-0.550,1769125
0.298,-0.227,-1.110,-3.603,0.748,-0.580,1773135
0.308,-0.227,-1.103,-3.618,0.885,-0.382,1777146
0.302,-0.233,-1.109,-4.061,0.977,-0.489,1781157
0.305,-0.228,-1.117,-4.168,1.282,-0.534,1785168
0.305,-0.235,-1.105,-4.504,1.435,-0.565,1789179
0.309,-0.228,-1.115,-4.626,1.450,-0.901,1793190
0.309,-0.234,-1.109,-4.733,1.618,-0.855,1797202
0.314,-0.226,-1.108,-4.733,1.496,-0.962,1801212
0.309,-0.223,-1.104,-4.702,1.588,-0.977,1805223
0.309,-0.227,-1.115,-4.702,1.527,-1.206,1809234
0.320,-0.228,-1.104,-4.687,1.328,-1.573,1813255
0.318,-0.233,-1.112,-4.794,1.053,-1.740,1817266
0.315,-0.227,-1.105,-5.023,1.160,-1.924,1821277
0.313,-0.229,-1.104,-5.038,0.962,-2.519,1825289
0.308,-0.232,-1.113,-5.069,1.282,-2.672,1829300
0.300,-0.223,-1.105,-5.069,1.298,-2.565,1833321
0.298,-0.227,-1.107,-4.656,1.679,-2.595,1837332
0.293,-0.226,-1.108,-4.473,1.817,-2.351,1841344
0.298,-0.221,-1.115,-4.366,2.229,-2.137,1845355
0.297,-0.220,-1.105,-4.031,2.473,-2.031,1849366
0.297,-0.220,-1.104,-3.878,2.855,-1.542,1853378
0.295,-0.219,-1.101,-3.634,3.145,-1.145,1857389
0.294,-0.215,-1.116,-3.359,3.374,-0.977,1861400
0.289,-0.213,-1.101,-3.023,3.710,-0.763,1865411
0.288,-0.222,-1.105,-2.870,3.969,-0.794,1869422
0.298,-0.229,-1.100,-2.870,3.939,-0.656,1873433
0.300,-0.232,-1.116,-3.069,4.153,-0.947,1877445
0.300,-0.230,-1.106,-3.542,4.214,-1.084,1881455
0.307,-0.231,-1.101,-3.695,4.351,-1.069,1885466
0.304,-0.229,-1.099,-4.076,4.076,-1.344,1889477
0.300,-0.230,-1.106,-4.718,3.847,-1.450,1893488
0.315,-0.227,-1.110,-5.176,3.481,-1.542,1897499
0.313,-0.223,-1.099,-5.710,3.130,-1.679,1901510
0.311,-0.226,-1.107,-6.061,2.702,-1.878,1905521
0.311,-0.229,-1.097,-6.641,2.168,-1.878,1909532
0.309,-0.225,-1.091,-7.130,1.786,-2.000,1913542
0.300,-0.212,-1.091,-7.405,1.511,-2.473,1917553
0.296,-0.216,-1.089,-7.618,1.618,-2.504,1921564
0.294,-0.212,-1.088,-7.344,1.679,-2.397,1925575
0.281,-0.203,-1.095,-6.763,2.275,-2.626,1929586
0.279,-0.194,-1.094,-6.092,2.977,-2.412,1933606
0.279,-0.195,-1.074,-5.389,3.527,-2.183,1937618
0.285,-0.202,-1.093,-4.824,3.725,-2.092,1941629
0.294,-0.201,-1.082,-4.687,3.740,-1.725,1945640
0.294,-0.201,-1.085,-4.321,3.511,-1.496,1949651
0.298,-0.210,-1.083,-4.015,3.115,-1.206,1953671
0.298,-0.214,-1.091,-3.649,2.748,-0.992,1957682
0.299,-0.201,-1.090,-3.374,2.550,-0.824,1961694
0.300,-0.203,-1.090,-2.885,2.321,-0.626,1965704
0.297,-0.208,-1.092,-2.641,2.336,-0.534,1969715
0.294,-0.200,-1.083,-2.107,2.473,-0.366,1973733
0.284,-0.203,-1.083,-1.786,2.534,-0.397,1977744
0.289,-0.212,-1.095,-1.481,2.855,-0.275,1981755
0.292,-0.213,-1.088,-1.664,2.977,-0.015,1985767
0.301,-0.211,-1.085,-1.771,3.206,0.275,1989778
0.314,-0.224,-1.097,-1.908,3.176,0.458,1993790
0.308,-0.230,-1.095,-2.092,2.901,0.198,1997800
0.315,-0.222,-1.090,-2.076,2.687,0.397,2001812
