acc_x,acc_y,acc_z,gyro_x,gyro_y,gyro_z,time
0.276,-0.164,-1.098,1.023,6.534,0.061,0
0.269,-0.164,-1.103,1.664,7.313,0.183,4050
0.271,-0.166,-1.096,2.305,7.878,0.015,8062
0.269,-0.168,-1.100,2.611,8.260,-0.107,12073
0.271,-0.172,-1.095,3.023,8.748,-0.244,16084
0.280,-0.178,-1.109,3.237,8.901,-0.198,20095
0.288,-0.189,-1.107,2.718,8.489,-0.290,24106
0.298,-0.186,-1.106,2.122,7.542,-0.244,28116
0.309,-0.196,-1.106,1.252,6.336,-0.198,32128
0.308,-0.200,-1.108,0.229,4.687,-0.382,36138
0.319,-0.198,-1.110,-0.733,2.840,-0.580,40149
0.327,-0.195,-1.109,-1.817,0.656,-0.977,44160
0.322,-0.207,-1.104,-2.977,-1.359,-1.573,48169
0.315,-0.198,-1.105,-3.832,-3.099,-1.908,52180
0.305,-0.197,-1.105,-4.779,-4.382,-2.366,56191
0.312,-0.188,-1.108,-5.160,-5.328,-2.672,60202
0.294,-0.181,-1.106,-5.298,-5.847,-2.748,64213
0.285,-0.171,-1.101,-4.977,-5.893,-3.191,68225
0.274,-0.172,-1.100,-4.656,-5.695,-3.160,72236
0.267,-0.160,-1.112,-4.244,-4.992,-3.237,76248
0.258,-0.168,-1.095,-3.725,-4.153,-3.511,80258
0.244,-0.155,-1.091,-2.977,-3.267,-3.328,84269
0.244,-0.157,-1.101,-2.198,-2.076,-3.267,88281
0.240,-0.160,-1.104,-1.389,-0.550,-3.221,92291
0.254,-0.163,-1.104,-0.534,0.397,-2.824,96302
0.255,-0.166,-1.104,-0.198,1.344,-2.748,100313
0.258,-0.169,-1.113,0.427,1.832,-2.840,104324
0.266,-0.176,-1.113,0.916,1.985,-2.580,108335
0.270,-0.167,-1.109,1.221,1.786,-2.076,112346
0.282,-0.171,-1.106,1.374,1.282,-2.061,116357
0.285,-0.176,-1.115,1.374,0.718,-2.046,120369
0.285,-0.177,-1.113,1.435,0.000,-2.290,124380
0.287,-0.178,-1.113,1.023,-0.840,-2.153,128390
0.295,-0.191,-1.106,0.626,-2.000,-2.275,132402
0.293,-0.184,-1.115,0.336,-2.885,-2.336,136413
0.292,-0.191,-1.114,0.153,-3.450,-2.336,140425
0.290,-0.190,-1.130,-0.321,-4.061,-2.427,144436
0.293,-0.194,-1.125,-0.550,-4.809,-2.672,148446
0.284,-0.195,-1.123,-0.855,-5.084,-2.595,152458
0.280,-0.193,-1.125,-1.053,-5.206,-2.641,156469
0.281,-0.193,-1.125,-1.313,-5.313,-2.763,160481
0.269,-0.193,-1.135,-1.618,-5.115,-3.221,164492
0.272,-0.191,-1.133,-1.863,-4.901,-3.237,168503
0.268,-0.193,-1.132,-2.214,-4.305,-3.466,172514
0.262,-0.191,-1.128,-2.336,-4.198,-3.924,176525
0.267,-0.189,-1.126,-2.687,-3.603,-4.382,180536
0.274,-0.182,-1.134,-2.702,-2.992,-4.458,184547
0.267,-0.176,-1.128,-2.931,-2.382,-4.687,188558
0.261,-0.174,-1.116,-2.733,-2.015,-4.809,192569
0.256,-0.172,-1.124,-2.366,-1.573,-4.656,196580
0.259,-0.169,-1.122,-1.817,-1.084,-4.473,200591
0.260,-0.172,-1.116,-1.328,-0.870,-4.458,204602
0.258,-0.171,-1.123,-0.824,-0.611,-4.198,208614
0.265,-0.171,-1.118,-0.443,-0.473,-4.305,212625
0.267,-0.171,-1.119,-0.290,-0.565,-4.214,216636
0.264,-0.172,-1.125,0.122,-0.718,-4.168,220647
0.263,-0.176,-1.130,0.305,-0.916,-3.954,224658
0.261,-0.174,-1.121,0.183,-0.977,-3.771,228670
0.263,-0.173,-1.127,0.397,-1.145,-3.802,232689
0.261,-0.183,-1.132,0.412,-1.405,-3.481,236700
0.267,-0.179,-1.129,0.137,-1.588,-3.313,240711
0.260,-0.179,-1.125,-0.351,-2.046,-3.221,244722
0.267,-0.187,-1.126,-0.962,-2.336,-3.008,248734
0.270,-0.193,-1.133,-1.206,-2.870,-3.008,252745
0.275,-0.184,-1.116,-1.832,-3.145,-2.901,256757
0.268,-0.185,-1.132,-2.183,-3.618,-2.916,260767
0.270,-0.191,-1.134,-2.595,-3.786,-3.191,264778
0.265,-0.190,-1.136,-3.130,-3.832,-3.527,268791
0.255,-0.190,-1.132,-3.542,-3.847,-3.725,272802
0.259,-0.188,-1.128,-3.893,-3.817,-4.046,276813
0.261,-0.194,-1.125,-4.351,-3.588,-4.122,280824
0.259,-0.191,-1.133,-4.718,-3.496,-4.641,284835
0.261,-0.185,-1.130,-4.916,-3.466,-4.519,288846
0.255,-0.178,-1.142,-4.687,-3.084,-4.382,292856
0.258,-0.180,-1.129,-4.687,-3.084,-4.504,296868
0.258,-0.178,-1.131,-4.687,-3.298,-4.229,300879
0.260,-0.179,-1.133,-4.519,-3.252,-4.107,304890
0.264,-0.179,-1.129,-4.107,-3.206,-3.771,308902
0.248,-0.176,-1.122,-3.863,-3.008,-3.557,312912
0.255,-0.178,-1.125,-3.557,-2.992,-3.267,316923
0.251,-0.174,-1.130,-3.420,-2.916,-3.328,320934
0.248,-0.177,-1.126,-3.099,-2.779,-3.069,324945
0.253,-0.174,-1.113,-3.053,-2.519,-2.779,328956
0.248,-0.170,-1.124,-2.962,-2.366,-2.794,332976
0.241,-0.172,-1.115,-2.977,-1.954,-2.626,336988
0.243,-0.176,-1.116,-2.840,-1.603,-2.305,340999
0.241,-0.174,-1.122,-3.130,-1.344,-2.397,345010
0.246,-0.177,-1.113,-3.313,-1.252,-2.397,349021
0.248,-0.182,-1.114,-3.221,-1.053,-2.321,353042
0.240,-0.178,-1.111,-3.420,-1.176,-2.229,357053
0.244,-0.175,-1.106,-3.466,-1.389,-2.214,361064
0.242,-0.170,-1.117,-3.740,-1.725,-2.519,365076
0.242,-0.177,-1.112,-3.802,-2.000,-1.863,369087
0.243,-0.177,-1.116,-3.969,-2.504,-1.878,373100
0.252,-0.189,-1.106,-4.046,-2.718,-1.725,377112
0.256,-0.179,-1.125,-4.198,-3.359,-1.695,381122
0.249,-0.179,-1.117,-4.244,-3.710,-1.435,385133
0.253,-0.181,-1.117,-4.153,-4.031,-1.282,389145
0.248,-0.180,-1.119,-4.198,-4.687,-1.344,393157
0.257,-0.181,-1.119,-4.275,-5.038,-1.145,397167
0.257,-0.182,-1.125,-4.290,-5.557,-1.450,401178
0.258,-0.187,-1.123,-4.458,-6.061,-1.069,405189
0.251,-0.190,-1.121,-4.504,-6.321,-0.992,409200
0.255,-0.186,-1.122,-4.443,-6.244,-1.023,413221
0.247,-0.183,-1.116,-4.489,-6.137,-1.069,417232
0.240,-0.187,-1.113,-4.382,-5.786,-0.977,421243
0.243,-0.182,-1.121,-4.198,-5.603,-1.053,425254
0.246,-0.184,-1.125,-4.107,-5.053,-1.069,429265
0.247,-0.184,-1.112,-4.015,-4.992,-1.069,433286
0.247,-0.188,-1.117,-3.954,-4.382,-0.901,437297
0.252,-0.185,-1.124,-3.481,-3.969,-0.962,441308
0.247,-0.181,-1.120,-3.634,-3.618,-0.870,445319
0.249,-0.186,-1.122,-3.695,-3.267,-0.977,449330
0.254,-0.189,-1.118,-3.802,-3.084,-1.023,453348
0.254,-0.188,-1.124,-3.786,-2.794,-1.023,457359
0.251,-0.185,-1.117,-3.802,-2.870,-1.435,461370
0.248,-0.178,-1.116,-3.817,-2.763,-1.466,465382
0.247,-0.175,-1.122,-3.939,-2.519,-1.221,469393
0.248,-0.184,-1.125,-3.939,-2.595,-1.313,473404
0.255,-0.183,-1.132,-4.305,-2.809,-1.099,477415
0.248,-0.188,-1.117,-4.412,-2.947,-1.038,481426
0.256,-0.183,-1.125,-4.458,-3.176,-0.794,485437
0.260,-0.186,-1.127,-4.550,-3.374,-0.855,489448
0.259,-0.184,-1.130,-4.824,-3.634,-0.809,493459
0.255,-0.177,-1.120,-5.084,-3.908,-0.702,497470
0.252,-0.182,-1.126,-5.420,-4.489,-0.901,501481
0.252,-0.178,-1.129,-5.481,-4.794,-0.885,505493
0.243,-0.178,-1.119,-5.435,-4.870,-1.099,509504
0.239,-0.171,-1.124,-5.481,-4.855,-0.855,513514
0.235,-0.165,-1.122,-5.206,-4.840,-0.611,517525
0.231,-0.167,-1.125,-5.053,-4.458,-0.580,521536
0.227,-0.165,-1.123,-4.733,-3.893,-0.305,525547
0.219,-0.164,-1.121,-4.565,-3.374,-0.412,529558
0.217,-0.173,-1.121,-4.565,-2.366,-0.351,533569
0.209,-0.167,-1.120,-4.412,-1.359,-0.076,537580
0.206,-0.165,-1.115,-4.595,-0.229,-0.031,541591
0.202,-0.167,-1.125,-4.580,0.931,0.321,545602
0.196,-0.164,-1.127,-4.702,2.305,0.290,549613
0.200,-0.160,-1.126,-4.656,3.481,0.366,553634
0.188,-0.160,-1.124,-4.870,4.794,0.489,557646
0.196,-0.166,-1.133,-4.977,5.786,0.641,561657
0.189,-0.166,-1.125,-5.405,6.870,0.824,565668
0.182,-0.169,-1.132,-6.107,8.244,0.962,569679
0.172,-0.175,-1.140,-7.008,9.908,1.206,573700
0.162,-0.174,-1.137,-8.290,11.603,1.221,577711
0.153,-0.174,-1.144,-9.969,14.244,0.947,581722
0.139,-0.185,-1.137,-12.015,17.115,0.412,585733
0.131,-0.184,-1.146,-14.260,21.298,-0.626,589744
0.110,-0.184,-1.155,-16.748,25.420,-2.183,593754
0.079,-0.185,-1.150,-19.298,33.405,-4.473,597765
0.042,-0.188,-1.144,-22.550,40.901,-7.344,601776
0.004,-0.193,-1.148,-25.634,50.473,-11.221,605788
-0.061,-0.183,-1.136,-27.969,61.130,-15.099,609799
-0.131,-0.142,-1.135,-28.977,75.985,-18.550,613809
-0.222,-0.130,-1.113,-29.603,95.450,-21.954,617820
-0.312,-0.094,-1.090,-28.550,124.336,-25.893,621831
-0.405,-0.068,-1.091,-26.198,156.214,-28.641,625843
-0.515,-0.038,-1.068,-23.374,191.176,-29.725,629854
-0.608,-0.010,-0.994,-16.992,236.840,-30.733,633874
-0.675,0.002,-1.011,-10.855,276.840,-27.481,637886
-0.682,0.017,-0.964,-3.664,326.260,-23.527,641898
-0.656,0.045,-0.849,7.710,397.527,-23.634,645909
-0.633,0.010,-0.819,15.359,455.603,-20.534,649921
-0.600,-0.031,-0.790,20.137,500.260,-15.176,653932
-0.498,-0.072,-0.704,24.046,500.260,-11.145,657943
-0.374,-0.083,-0.602,26.412,500.260,-9.527,661954
-0.252,-0.083,-0.505,29.176,500.260,-9.282,665965
-0.146,-0.067,-0.437,32.305,500.260,-8.397,669976
-0.073,-0.063,-0.348,35.160,500.260,-7.466,673987
0.006,-0.031,-0.260,38.718,500.260,-7.679,677999
0.056,-0.011,-0.161,42.901,500.260,-9.252,682010
0.073,-0.060,-0.091,48.427,500.260,-9.786,686022
0.152,-0.031,0.001,54.168,500.260,-12.733,690033
0.247,-0.064,0.178,58.534,500.260,-13.710,694044
0.385,-0.088,0.225,65.069,500.260,-14.031,698056
0.522,-0.135,0.349,67.618,500.260,-14.733,702066
0.691,-0.179,0.417,69.115,500.260,-15.069,706077
0.829,-0.258,0.540,65.374,500.260,-14.840,710088
0.969,-0.297,0.615,60.031,500.260,-12.916,714099
1.081,-0.374,0.699,51.649,500.260,-8.244,718105
1.156,-0.406,0.746,40.321,500.260,-2.275,722116
1.214,-0.400,0.783,32.290,500.260,2.992,726127
1.345,-0.343,0.793,30.015,500.260,5.725,730138
1.481,-0.309,0.835,27.679,500.260,5.542,734149
1.570,-0.336,0.877,19.771,500.260,5.191,738155
1.676,-0.329,0.873,10.260,500.260,1.542,742166
1.715,-0.332,0.872,1.725,500.260,-2.794,746177
1.685,-0.309,0.874,-5.084,500.260,-10.779,750188
1.692,-0.286,0.855,-10.779,500.260,-10.809,754199
1.709,-0.255,0.840,-13.649,500.260,-11.405,758211
1.794,-0.253,0.810,-17.405,500.260,-12.672,762222
1.864,-0.266,0.782,-22.443,500.260,-16.107,766234
1.931,-0.272,0.768,-28.198,500.260,-22.244,770245
1.973,-0.268,0.729,-34.550,500.260,-25.832,774256
1.953,-0.248,0.651,-41.191,500.260,-26.855,778268
1.898,-0.225,0.618,-45.893,492.763,-25.023,782279
1.715,-0.227,0.861,-54.992,445.863,-23.817,786291
1.805,-0.111,0.540,-48.031,373.679,-23.328,790301
1.703,-0.169,0.579,-49.496,305.740,-27.710,794312
1.712,-0.137,0.568,-47.786,241.328,-34.275,798323
1.742,-0.115,0.600,-45.588,176.351,-41.267,802334
1.714,-0.107,0.615,-42.046,114.718,-46.046,806345
1.663,-0.100,0.633,-38.794,62.565,-48.366,810356
1.593,-0.110,0.652,-34.992,7.359,-49.282,814367
1.535,-0.133,0.687,-32.214,-39.511,-48.672,818377
1.495,-0.151,0.707,-28.519,-83.527,-48.382,822388
1.447,-0.174,0.700,-25.496,-129.084,-48.519,826399
1.399,-0.204,0.726,-24.977,-172.702,-48.473,830410
1.356,-0.199,0.733,-22.122,-212.656,-45.802,834421
1.325,-0.216,0.772,-17.298,-259.084,-42.290,838432
1.309,-0.214,0.829,-15.298,-292.000,-39.267,842443
1.294,-0.204,0.813,-11.649,-334.992,-35.664,846453
1.315,-0.212,0.851,-9.664,-367.298,-31.634,850464
1.348,-0.228,0.885,-8.824,-392.412,-28.153,854476
1.388,-0.247,0.892,-8.366,-422.626,-22.656,858487
1.415,-0.258,0.897,-8.321,-445.695,-16.855,862498
1.434,-0.278,0.901,-8.641,-470.443,-9.603,866509
1.435,-0.290,0.900,-9.344,-494.992,-1.450,870520
1.445,-0.281,0.888,-9.771,-500.275,7.405,874531
1.440,-0.276,0.870,-9.878,-500.275,15.847,878543
1.465,-0.260,0.861,-9.756,-500.275,23.496,882554
1.493,-0.229,0.836,-9.603,-500.275,30.229,886565
1.540,-0.211,0.817,-9.099,-500.275,35.344,890576
1.566,-0.194,0.815,-9.115,-500.275,39.740,894587
1.596,-0.185,0.795,-9.252,-500.275,42.840,898599
1.626,-0.175,0.773,-9.359,-500.275,44.947,902610
1.650,-0.167,0.771,-10.427,-500.275,45.252,906621
1.672,-0.170,0.750,-12.504,-500.275,43.267,910632
1.677,-0.171,0.753,-14.550,-500.275,39.496,914643
1.660,-0.168,0.745,-16.794,-500.275,34.687,918655
1.618,-0.164,0.738,-18.931,-500.275,28.427,922676
1.580,-0.161,0.734,-21.115,-500.275,21.893,926687
1.531,-0.152,0.740,-23.557,-500.275,14.748,930698
1.464,-0.142,0.754,-26.122,-500.275,7.603,934709
1.385,-0.130,0.758,-29.267,-500.275,-0.351,938720
1.280,-0.121,0.815,-33.832,-500.275,-8.031,942733
1.246,-0.121,0.720,-36.458,-500.275,-16.687,946744
1.128,-0.151,0.746,-39.756,-500.275,-25.924,950755
0.985,-0.185,0.709,-42.977,-500.275,-34.321,954766
0.803,-0.205,0.650,-45.115,-500.275,-38.672,958778
0.609,-0.215,0.585,-46.076,-500.275,-39.359,962789
0.411,-0.220,0.529,-47.832,-500.275,-38.427,966801
0.185,-0.229,0.444,-51.023,-500.275,-33.542,970812
-0.053,-0.219,0.354,-55.084,-500.275,-25.740,974823
-0.286,-0.202,0.285,-56.198,-500.275,-16.809,978834
-0.530,-0.163,0.160,-53.924,-500.275,-6.809,982844
-0.762,-0.115,0.025,-50.641,-500.275,4.977,986855
-0.985,-0.032,-0.103,-44.137,-500.275,17.359,990866
-1.156,0.052,-0.245,-35.634,-500.275,30.122,994877
-1.294,0.140,-0.346,-21.969,-464.794,37.618,998889
-1.374,0.238,-0.476,-3.908,-369.649,39.863,1002899
-1.414,0.288,-0.614,15.481,-279.725,42.321,1006910
-1.361,0.292,-0.716,36.901,-189.908,44.046,1010921
-1.226,0.244,-0.826,54.595,-113.695,44.168,1014932
-1.026,0.171,-0.897,70.550,-45.282,42.275,1018943
-0.774,0.103,-0.958,82.076,8.855,39.069,1022964
-0.517,0.041,-0.998,89.374,49.649,34.992,1026975
-0.248,-0.045,-1.029,93.588,78.305,29.924,1030986
0.027,-0.125,-1.034,92.855,108.076,24.168,1034998
0.196,-0.165,-0.962,85.374,175.099,-6.519,1039009
0.668,-0.247,-1.216,94.840,159.817,-5.634,1043030
0.557,-0.354,-1.190,79.679,120.443,3.496,1047040
0.719,-0.445,-1.291,65.817,47.893,2.901,1051051
0.775,-0.476,-1.263,53.908,18.382,-4.015,1055062
0.789,-0.504,-1.275,41.435,-3.374,-8.809,1059073
0.770,-0.506,-1.296,29.664,-25.008,-10.321,1063084
0.730,-0.504,-1.331,18.122,-51.573,-10.870,1067095
0.695,-0.487,-1.340,7.313,-80.076,-11.084,1071106
0.649,-0.456,-1.312,-3.099,-96.763,-11.954,1075117
0.578,-0.406,-1.265,-11.252,-87.328,-12.672,1079128
0.478,-0.360,-1.294,-17.023,-96.382,-12.794,1083138
0.377,-0.310,-1.262,-20.840,-101.725,-13.374,1087149
0.292,-0.263,-1.242,-23.221,-104.397,-13.786,1091160
0.208,-0.231,-1.223,-23.817,-103.878,-14.733,1095171
0.140,-0.212,-1.208,-23.145,-105.634,-15.389,1099182
0.070,-0.205,-1.213,-22.061,-104.519,-14.748,1103195
0.020,-0.192,-1.173,-20.519,-90.122,-14.031,1107206
-0.024,-0.184,-1.181,-17.985,-78.092,-11.435,1111217
-0.063,-0.184,-1.161,-15.221,-61.191,-9.252,1115228
-0.072,-0.176,-1.151,-12.550,-41.496,-7.771,1119239
-0.062,-0.184,-1.151,-10.198,-23.038,-6.412,1123259
-0.029,-0.179,-1.166,-7.405,-8.214,-4.901,1127271
0.009,-0.181,-1.166,-5.008,4.733,-3.466,1131282
0.055,-0.190,-1.164,-2.855,14.763,-2.229,1135293
0.095,-0.197,-1.166,-1.023,22.229,-0.763,1139304
0.135,-0.205,-1.167,0.656,26.748,0.504,1143324
0.181,-0.212,-1.168,1.649,28.962,1.588,1147335
0.206,-0.220,-1.181,2.305,30.916,2.550,1151346
0.235,-0.228,-1.174,1.695,32.580,3.267,1155357
0.275,-0.232,-1.163,0.840,32.427,3.939,1159368
0.328,-0.232,-1.168,-0.855,28.168,1.893,1163382
0.358,-0.231,-1.163,-3.282,28.992,-1.420,1167393
0.360,-0.240,-1.175,-4.901,26.718,-3.237,1171404
0.353,-0.243,-1.178,-6.611,24.702,-3.176,1175415
0.353,-0.242,-1.170,-8.198,20.153,-2.504,1179426
0.363,-0.249,-1.167,-10.260,15.786,-2.580,1183437
0.367,-0.247,-1.152,-12.702,11.725,-3.695,1187448
0.360,-0.242,-1.151,-15.053,7.053,-5.450,1191459
0.343,-0.235,-1.142,-17.130,2.824,-6.947,1195470
0.335,-0.226,-1.138,-18.855,-0.565,-8.183,1199481
0.314,-0.217,-1.124,-19.740,-3.176,-9.038,1203492
0.296,-0.210,-1.124,-20.198,-5.527,-9.374,1207503
0.285,-0.201,-1.110,-20.351,-7.450,-9.603,1211515
0.277,-0.198,-1.102,-20.473,-8.473,-9.573,1215525
0.260,-0.181,-1.100,-20.168,-8.443,-9.435,1219536
0.253,-0.171,-1.093,-19.695,-7.908,-9.756,1223546
0.230,-0.159,-1.082,-18.412,-6.473,-9.664,1227558
0.223,-0.155,-1.077,-16.794,-4.244,-9.328,1231569
0.199,-0.147,-1.077,-14.992,-2.107,-8.779,1235580
0.204,-0.149,-1.077,-13.267,-0.443,-7.450,1239591
0.206,-0.153,-1.080,-11.420,0.656,-6.962,1243611
0.219,-0.164,-1.086,-10.107,1.191,-6.672,1247621
0.241,-0.162,-1.082,-8.992,0.794,-6.336,1251633
0.253,-0.173,-1.087,-8.092,-0.122,-5.939,1255644
0.269,-0.177,-1.091,-7.603,-1.145,-5.359,1259655
0.283,-0.183,-1.096,-7.313,-2.840,-4.885,1263676
0.293,-0.190,-1.102,-7.328,-4.687,-5.130,1267688
0.292,-0.190,-1.101,-7.740,-6.122,-5.282,1271699
0.294,-0.198,-1.105,-8.260,-7.557,-5.420,1275710
0.285,-0.207,-1.103,-8.962,-8.595,-5.878,1279721
0.283,-0.209,-1.113,-9.740,-9.588,-6.824,1283732
0.275,-0.206,-1.106,-10.733,-9.771,-7.618,1287743
0.266,-0.206,-1.104,-11.481,-10.153,-8.718,1291755
0.251,-0.198,-1.097,-12.198,-9.863,-9.511,1295766
0.244,-0.193,-1.112,-13.069,-9.023,-10.382,1299777
0.232,-0.187,-1.097,-13.237,-7.817,-10.748,1303787
0.213,-0.177,-1.096,-13.405,-6.244,-10.962,1307798
0.211,-0.178,-1.102,-13.405,-4.718,-11.084,1311809
0.206,-0.164,-1.093,-12.809,-2.519,-11.099,1315820
0.187,-0.159,-1.089,-11.344,0.275,-11.130,1319831
0.181,-0.140,-1.086,-9.618,2.824,-10.901,1323851
0.177,-0.138,-1.074,-7.847,5.481,-10.336,1327862
0.175,-0.131,-1.087,-5.542,8.153,-9.725,1331873
0.175,-0.128,-1.088,-3.695,10.153,-9.221,1335884
0.180,-0.135,-1.094,-1.679,12.015,-8.718,1339895
0.196,-0.146,-1.098,-0.107,13.588,-8.244,1343915
0.210,-0.153,-1.094,1.084,14.122,-7.481,1347925
0.235,-0.167,-1.104,1.969,14.000,-6.885,1351936
0.245,-0.175,-1.105,2.290,13.481,-6.565,1355947
0.259,-0.176,-1.104,2.321,12.260,-6.076,1359959
0.268,-0.185,-1.098,1.954,10.687,-5.832,1363970
0.266,-0.189,-1.113,1.496,9.069,-5.466,1367982
0.261,-0.190,-1.105,1.145,7.603,-4.962,1371992
0.261,-0.193,-1.104,0.870,6.275,-4.901,1376003
0.264,-0.196,-1.108,0.595,5.237,-4.779,1380014
0.264,-0.193,-1.095,-0.092,4.046,-4.962,1384025
0.284,-0.198,-1.106,-0.519,2.794,-5.084,1388036
0.286,-0.207,-1.106,-1.695,1.038,-5.191,1392047
0.290,-0.209,-1.107,-2.595,-0.733,-5.008,1396058
0.288,-0.206,-1.115,-3.145,-2.382,-4.718,1400070
0.287,-0.195,-1.107,-3.191,-3.969,-4.458,1404081
0.270,-0.187,-1.098,-2.855,-5.176,-4.412,1408092
0.263,-0.188,-1.100,-2.076,-5.863,-4.412,1412103
0.248,-0.183,-1.097,-0.916,-6.107,-4.748,1416114
0.238,-0.177,-1.106,0.183,-5.511,-4.763,1420125
0.228,-0.179,-1.115,1.267,-4.305,-5.206,1424136
0.217,-0.177,-1.107,2.473,-2.916,-5.221,1428149
0.215,-0.178,-1.112,3.710,-1.145,-5.191,1432160
0.227,-0.191,-1.117,4.397,0.168,-5.160,1436171
0.229,-0.203,-1.122,4.702,1.023,-5.115,1440182
0.240,-0.202,-1.130,4.794,1.389,-5.115,1444193
0.249,-0.217,-1.129,4.947,1.374,-4.672,1448204
0.261,-0.217,-1.135,4.718,0.794,-4.214,1452216
0.269,-0.220,-1.133,4.137,0.153,-3.588,1456226
0.265,-0.225,-1.145,3.405,-0.931,-3.176,1460237
0.273,-0.229,-1.132,2.534,-1.985,-3.145,1464248
0.268,-0.229,-1.126,1.573,-2.718,-3.389,1468260
0.259,-0.228,-1.133,0.901,-3.069,-3.511,1472271
0.259,-0.223,-1.131,-0.076,-3.069,-3.725,1476282
0.249,-0.210,-1.132,-0.672,-2.931,-4.290,1480293
0.244,-0.207,-1.115,-1.527,-2.534,-4.824,1484304
0.238,-0.204,-1.124,-2.015,-2.000,-5.176,1488316
0.243,-0.208,-1.121,-2.626,-1.710,-5.374,1492327
0.245,-0.210,-1.118,-3.008,-1.053,-5.695,1496338
0.242,-0.201,-1.116,-3.237,-0.489,-5.802,1500349
0.241,-0.197,-1.111,-3.405,0.000,-5.908,1504360
0.240,-0.201,-1.120,-3.435,0.489,-5.771,1508367
0.238,-0.200,-1.121,-3.542,1.084,-5.481,1512378
0.229,-0.195,-1.118,-3.725,1.496,-5.420,1516389
0.226,-0.192,-1.106,-3.573,1.939,-5.099,1520401
0.237,-0.186,-1.114,-3.374,2.321,-4.885,1524412
0.242,-0.183,-1.115,-3.191,2.305,-4.641,1528422
0.244,-0.183,-1.106,-3.053,2.168,-4.183,1532433
0.247,-0.192,-1.105,-2.718,2.183,-3.527,1536444
0.254,-0.180,-1.107,-2.183,1.710,-3.084,1540455
0.246,-0.182,-1.112,-1.740,1.359,-2.702,1544466
0.252,-0.179,-1.105,-1.038,0.809,-2.336,1548477
0.255,-0.181,-1.102,-0.305,0.519,-1.954,1552488
0.253,-0.178,-1.101,0.321,0.076,-1.863,1556499
0.258,-0.181,-1.102,0.992,-0.336,-1.756,1560510
0.254,-0.179,-1.104,1.634,-0.443,-1.557,1564521
0.260,-0.177,-1.107,1.863,-0.580,-1.618,1568532
0.260,-0.184,-1.107,2.260,-0.824,-1.649,1572543
0.258,-0.183,-1.104,2.885,-0.626,-1.511,1576554
0.255,-0.190,-1.103,3.542,-0.550,-1.466,1580565
0.262,-0.194,-1.112,3.725,-0.794,-1.542,1584576
0.262,-0.208,-1.109,3.573,-1.053,-1.588,1588587
0.275,-0.208,-1.105,3.313,-1.130,-1.756,1592598
0.282,-0.209,-1.112,2.718,-1.878,-1.969,1596609
0.284,-0.212,-1.119,2.076,-2.351,-2.122,1600621
0.293,-0.214,-1.105,1.160,-3.038,-2.336,1604632
0.292,-0.206,-1.127,0.473,-3.908,-2.443,1608643
0.292,-0.216,-1.119,-0.183,-4.336,-2.656,1612664
0.289,-0.212,-1.121,-0.489,-4.870,-2.992,1616675
0.280,-0.210,-1.123,-0.702,-5.084,-3.160,1620686
0.277,-0.200,-1.116,-0.779,-4.992,-3.344,1624697
0.263,-0.202,-1.119,-0.565,-4.611,-3.237,1628710
0.264,-0.196,-1.125,-0.519,-4.076,-3.374,1632721
0.260,-0.195,-1.120,0.031,-3.328,-3.603,1636732
0.244,-0.187,-1.131,0.504,-2.366,-3.511,1640743
0.236,-0.189,-1.124,1.053,-1.298,-3.481,1644754
0.240,-0.183,-1.123,1.298,-0.198,-3.466,1648765
0.239,-0.193,-1.124,1.573,0.962,-3.221,1652777
0.240,-0.192,-1.133,1.603,1.863,-2.870,1656787
0.241,-0.200,-1.134,1.603,2.580,-2.626,1660798
0.246,-0.202,-1.133,1.130,3.099,-1.985,1664809
0.259,-0.211,-1.130,0.702,3.069,-1.756,1668821
0.272,-0.210,-1.130,-0.076,2.931,-1.420,1672832
0.270,-0.215,-1.126,-0.702,2.260,-1.237,1676843
0.278,-0.209,-1.136,-1.160,1.069,-1.053,1680854
0.281,-0.200,-1.133,-2.046,0.046,-1.115,1684865
0.281,-0.210,-1.134,-2.611,-1.084,-1.328,1688876
0.280,-0.207,-1.119,-3.176,-1.954,-1.511,1692886
0.281,-0.209,-1.117,-3.588,-2.779,-1.725,1696897
0.269,-0.198,-1.122,-3.725,-3.221,-1.847,1700908
0.256,-0.191,-1.117,-3.863,-3.069,-1.786,1704919
0.245,-0.184,-1.116,-3.802,-2.244,-1.939,1708931
0.239,-0.190,-1.108,-3.435,-1.405,-1.634,1712951
0.226,-0.193,-1.111,-2.763,-0.305,-1.481,1716963
0.235,-0.186,-1.117,-1.924,1.038,-1.221,1720973
0.230,-0.188,-1.127,-1.450,2.122,-0.992,1724984
0.240,-0.190,-1.120,-0.779,3.115,-0.763,1728996
0.240,-0.192,-1.112,-0.260,3.649,-0.427,1733016
0.246,-0.194,-1.113,-0.412,4.183,-0.321,1737027
0.248,-0.194,-1.119,-0.290,4.443,-0.137,1741038
0.253,-0.201,-1.113,-0.168,4.916,-0.305,1745049
0.247,-0.198,-1.114,-0.153,5.420,-0.244,1749060
0.249,-0.198,-1.123,0.275,6.107,-0.214,1753078
0.240,-0.193,-1.121,0.687,6.977,-0.244,1757089
0.246,-0.195,-1.118,0.916,7.756,-0.305,1761101
0.254,-0.198,-1.117,1.267,8.473,-0.321,1765111
0.252,-0.201,-1.120,1.191,8.733,-0.534,1769122
0.259,-0.205,-1.119,0.916,8.809,-0.489,1773132
0.269,-0.208,-1.129,0.824,8.565,-0.519,1777143
0.273,-0.210,-1.115,0.290,8.168,-0.305,1781154
0.279,-0.216,-1.122,-0.214,7.221,-0.153,1785165
0.288,-0.218,-1.126,-0.947,5.740,0.107,1789176
0.296,-0.218,-1.125,-1.450,4.229,0.626,1793187
0.299,-0.221,-1.134,-2.107,2.534,0.519,1797199
0.298,-0.223,-1.131,-2.870,0.748,0.916,1801209
0.309,-0.226,-1.125,-3.496,-1.267,0.916,1805220
0.300,-0.229,-1.118,-4.137,-2.672,0.962,1809231
0.282,-0.210,-1.119,-4.153,-3.878,0.672,1813252
0.285,-0.207,-1.119,-4.168,-4.687,0.244,1817263
0.279,-0.202,-1.128,-4.015,-5.206,-0.061,1821274
0.264,-0.202,-1.121,-3.771,-5.328,-0.275,1825286
0.257,-0.204,-1.121,-3.405,-4.962,-0.427,1829297
0.248,-0.205,-1.115,-2.931,-4.275,-0.275,1833318
0.245,-0.195,-1.118,-2.427,-3.160,-0.244,1837329
0.231,-0.201,-1.107,-1.939,-1.756,-0.183,1841341
0.230,-0.198,-1.119,-1.573,-0.183,-0.336,1845352
0.231,-0.206,-1.119,-1.511,1.115,-0.458,1849363
0.229,-0.203,-1.120,-1.481,2.244,-0.473,1853375
0.242,-0.203,-1.114,-1.634,2.962,-0.489,1857386
0.251,-0.219,-1.115,-2.427,3.679,-0.443,1861397
0.258,-0.215,-1.121,-3.053,3.466,-0.168,1865408
0.272,-0.220,-1.117,-4.107,2.809,-0.046,1869419
0.281,-0.221,-1.126,-5.023,1.740,0.137,1873430
0.292,-0.224,-1.128,-5.679,0.595,0.351,1877442
0.288,-0.213,-1.126,-6.580,-0.855,0.763,1881452
0.285,-0.219,-1.127,-7.344,-2.458,0.672,1885463
0.283,-0.216,-1.117,-8.092,-3.679,0.901,1889474
0.274,-0.211,-1.126,-8.565,-4.885,0.992,1893485
0.267,-0.208,-1.125,-8.611,-5.344,0.977,1897496
0.259,-0.204,-1.119,-8.870,-6.046,1.069,1901507
0.257,-0.206,-1.124,-8.916,-5.771,1.130,1905518
0.254,-0.200,-1.118,-8.550,-5.481,1.359,1909529
0.246,-0.199,-1.113,-8.504,-4.916,1.389,1913539
0.243,-0.198,-1.121,-7.954,-3.954,1.420,1917550
0.237,-0.192,-1.115,-7.542,-3.130,1.649,1921561
0.238,-0.192,-1.121,-6.824,-2.061,1.405,1925572
0.245,-0.190,-1.117,-5.985,-1.023,1.252,1929583
0.247,-0.192,-1.121,-5.267,-0.046,1.328,1933603
0.250,-0.193,-1.107,-4.504,0.366,1.023,1937615
0.250,-0.199,-1.106,-3.985,1.084,0.794,1941626
0.257,-0.198,-1.118,-3.374,1.389,0.580,1945637
0.265,-0.204,-1.126,-3.053,1.267,0.519,1949648
0.267,-0.203,-1.122,-2.870,1.405,0.031,1953668
0.267,-0.207,-1.120,-3.038,1.008,-0.137,1957679
0.270,-0.203,-1.119,-3.023,0.718,-0.427,1961691
0.272,-0.209,-1.119,-3.145,0.489,-0.580,1965701
0.264,-0.208,-1.128,-3.237,0.290,-0.885,1969712
0.267,-0.216,-1.133,-3.863,0.183,-0.733,1973730
0.272,-0.219,-1.129,-4.290,-0.260,-0.534,1977741
0.267,-0.221,-1.136,-5.099,-0.626,-0.519,1981752
0.273,-0.225,-1.129,-5.740,-0.916,-0.244,1985764
0.271,-0.224,-1.129,-6.626,-1.496,-0.046,1989775
0.273,-0.221,-1.130,-7.481,-2.031,-0.092,1993787
0.265,-0.216,-1.127,-8.153,-2.550,-0.183,1997797
0.259,-0.213,-1.124,-8.718,-2.885,-0.214,2001809
