acc_x,acc_y,acc_z,gyro_x,gyro_y,gyro_z,time
0.456,-0.073,-1.028,-19.481,141.863,10.244,0
0.474,-0.074,-1.022,-20.840,141.893,9.893,4050
0.496,-0.077,-1.021,-21.603,141.115,8.672,8063
0.507,-0.081,-1.015,-23.435,139.954,7.252,12074
0.522,-0.085,-1.012,-24.840,138.595,6.046,16085
0.546,-0.088,-1.009,-24.977,136.473,4.382,20096
0.566,-0.078,-1.000,-26.290,133.634,4.382,24107
0.592,-0.075,-0.991,-27.756,130.916,4.107,28118
0.610,-0.076,-0.992,-29.557,127.740,3.481,32129
0.623,-0.079,-0.984,-31.282,124.244,2.321,36140
0.620,-0.077,-0.984,-32.153,120.565,1.679,40151
0.630,-0.074,-0.983,-33.069,116.763,0.702,44162
0.624,-0.076,-0.962,-33.908,113.389,0.031,48170
0.625,-0.068,-0.960,-33.053,110.519,0.137,52181
0.618,-0.054,-0.952,-32.443,107.954,1.542,56192
0.623,-0.048,-0.947,-32.382,105.740,2.427,60203
0.627,-0.031,-0.944,-32.198,103.695,3.618,64214
0.626,-0.034,-0.945,-31.847,101.695,4.305,68226
0.631,-0.036,-0.939,-31.298,100.290,4.687,72237
0.638,-0.031,-0.927,-31.069,98.595,4.809,76248
0.633,-0.023,-0.926,-31.237,96.885,4.489,80259
0.629,-0.033,-0.923,-31.344,96.137,3.893,84270
0.641,-0.035,-0.919,-31.954,96.107,3.282,88282
0.636,-0.035,-0.918,-32.748,96.855,2.519,92293
0.624,-0.041,-0.904,-33.450,97.298,0.885,96305
0.631,-0.041,-0.891,-33.420,98.076,-0.489,100316
0.619,-0.032,-0.885,-33.267,99.435,-1.405,104327
0.624,-0.029,-0.892,-33.725,101.863,-2.046,108339
0.628,-0.031,-0.897,-34.641,104.748,-3.069,112350
0.631,-0.023,-0.882,-34.168,107.115,-3.237,116362
0.633,-0.013,-0.885,-33.954,109.725,-2.489,120373
0.639,-0.008,-0.868,-33.603,112.046,-2.214,124384
0.643,-0.005,-0.869,-32.702,114.473,-1.649,128395
0.642,0.004,-0.856,-32.168,117.771,-1.267,132406
0.632,0.009,-0.862,-30.763,121.573,-0.794,136418
0.625,0.012,-0.852,-28.718,125.771,0.779,140428
0.622,0.013,-0.842,-27.053,130.000,2.321,144439
0.601,-0.021,-0.820,-27.435,133.450,-1.664,148450
0.611,0.025,-0.845,-24.641,138.641,-1.496,152461
0.628,0.030,-0.837,-22.992,144.382,1.130,156472
0.653,0.033,-0.826,-21.878,150.687,4.061,160483
0.670,0.026,-0.815,-20.809,156.763,6.504,164494
0.688,0.015,-0.801,-18.962,161.695,8.000,168505
0.702,0.009,-0.791,-17.282,164.687,8.718,172516
0.713,0.007,-0.791,-15.954,166.534,8.366,176527
0.730,-0.001,-0.789,-15.328,168.748,6.565,180538
0.744,-0.007,-0.777,-14.901,170.382,6.183,184549
0.762,-0.012,-0.777,-16.260,172.275,7.695,188560
0.805,-0.019,-0.775,-17.985,172.672,9.191,192571
0.833,-0.036,-0.758,-19.771,172.198,9.023,196582
0.851,-0.046,-0.738,-21.023,171.298,9.374,200593
0.868,-0.042,-0.717,-21.924,169.389,11.481,204604
0.874,-0.050,-0.714,-23.221,167.084,13.328,208616
0.879,-0.049,-0.723,-25.618,165.893,14.947,212627
0.871,-0.054,-0.708,-27.405,165.130,15.832,216638
0.858,-0.050,-0.709,-29.252,165.023,15.847,220649
0.845,-0.056,-0.690,-30.153,164.794,15.282,224660
0.839,-0.045,-0.686,-31.313,165.267,14.733,228672
0.847,-0.035,-0.679,-32.840,165.710,12.565,232692
0.846,-0.019,-0.679,-33.267,167.084,9.511,236702
0.834,-0.040,-0.650,-33.359,168.885,10.015,240713
0.858,-0.021,-0.637,-32.504,169.466,8.489,244724
0.861,-0.022,-0.622,-30.519,168.641,0.580,248735
0.870,0.017,-0.595,-28.885,168.702,-2.870,252746
0.899,0.039,-0.590,-26.824,168.840,-3.405,256758
0.937,0.055,-0.565,-26.718,171.908,0.718,260769
0.956,0.048,-0.548,-24.427,172.305,5.053,264780
0.947,0.029,-0.523,-22.046,173.328,6.626,268793
0.927,0.031,-0.504,-17.405,174.611,7.053,272804
0.899,0.030,-0.486,-13.878,176.733,8.519,276815
0.891,0.044,-0.484,-10.031,178.687,8.687,280826
0.906,0.035,-0.471,-7.374,179.969,9.374,284837
0.902,0.035,-0.465,-5.389,182.000,10.550,288849
0.905,0.023,-0.457,-3.450,183.511,8.015,292859
0.894,0.001,-0.452,-1.954,184.947,3.969,296870
0.904,-0.006,-0.413,-2.260,187.603,2.443,300882
0.907,-0.019,-0.425,-1.695,189.634,1.786,304893
0.926,-0.024,-0.406,-2.382,192.885,3.221,308905
0.950,-0.034,-0.397,-3.969,193.557,5.634,312914
0.982,-0.037,-0.392,-5.740,193.573,8.427,316925
0.987,-0.049,-0.391,-6.000,193.176,6.931,320936
0.988,-0.062,-0.365,-8.031,191.344,8.198,324948
1.005,-0.047,-0.365,-9.267,188.702,9.893,328959
1.020,-0.041,-0.360,-10.809,186.977,10.779,332979
1.047,-0.036,-0.338,-12.168,181.878,11.527,336989
1.072,-0.033,-0.326,-13.099,175.863,12.595,341000
1.080,-0.052,-0.325,-13.298,171.802,12.992,345011
1.064,-0.047,-0.312,-12.763,167.328,10.107,349022
1.037,-0.038,-0.297,-12.840,164.519,9.344,353042
1.020,-0.013,-0.279,-12.366,160.977,8.794,357052
1.007,-0.010,-0.272,-10.031,159.115,5.924,361063
1.021,-0.024,-0.246,-10.840,157.542,6.244,365074
1.025,-0.011,-0.247,-10.947,156.321,8.366,369085
1.011,-0.018,-0.229,-12.504,156.748,5.374,373098
0.998,-0.032,-0.244,-10.321,156.504,4.779,377110
1.012,-0.040,-0.217,-12.107,157.481,7.695,381120
1.041,-0.040,-0.210,-12.397,155.634,8.382,385131
1.034,-0.063,-0.214,-13.588,154.489,6.901,389142
1.035,-0.053,-0.191,-15.466,154.137,9.832,393153
1.049,-0.046,-0.189,-17.191,152.382,13.282,397164
1.044,-0.055,-0.185,-18.122,150.061,14.824,401176
1.034,-0.060,-0.170,-18.504,148.565,11.649,405186
0.998,-0.053,-0.165,-17.435,147.924,10.366,409197
0.987,-0.050,-0.143,-18.412,147.802,13.573,413217
1.003,-0.043,-0.146,-17.237,146.733,13.496,417228
1.041,-0.035,-0.115,-18.305,144.427,13.099,421240
1.046,-0.038,-0.115,-18.855,143.130,11.710,425251
1.026,-0.032,-0.097,-19.084,142.962,10.321,429262
1.009,-0.033,-0.100,-18.916,142.519,11.145,433282
1.027,-0.041,-0.085,-19.145,141.893,14.779,437293
1.052,-0.058,-0.068,-19.985,141.328,17.237,441305
1.062,-0.050,-0.069,-20.519,139.267,18.534,445315
1.049,-0.042,-0.046,-20.595,138.168,19.786,449326
1.016,-0.049,-0.039,-20.305,138.962,19.908,453344
0.968,-0.042,-0.038,-19.618,140.565,20.336,457356
0.934,-0.032,-0.018,-19.023,143.420,20.260,461367
0.930,-0.031,-0.009,-18.275,146.519,22.092,465378
0.934,-0.040,-0.009,-17.557,148.733,23.573,469389
0.955,-0.043,0.012,-17.893,151.634,23.985,473400
0.964,-0.042,0.012,-17.771,153.695,23.985,477412
0.973,-0.050,0.020,-17.893,154.641,25.176,481423
0.992,-0.049,0.027,-18.244,154.611,26.641,485435
0.988,-0.054,0.019,-18.305,155.145,26.458,489446
0.975,-0.057,0.017,-19.008,156.046,26.504,493457
0.959,-0.046,0.028,-19.603,156.275,22.916,497468
0.961,-0.060,0.035,-18.733,155.679,23.099,501479
0.973,-0.065,0.062,-20.244,154.916,25.313,505490
1.011,-0.071,0.071,-19.511,154.122,29.206,509501
1.024,-0.080,0.087,-20.458,153.939,31.557,513512
1.019,-0.067,0.097,-20.321,152.565,30.931,517523
0.999,-0.073,0.112,-20.519,152.824,31.817,521534
0.983,-0.089,0.133,-21.573,153.496,34.748,525545
0.965,-0.092,0.154,-22.504,154.244,36.046,529556
0.961,-0.099,0.163,-22.763,154.611,35.985,533566
0.951,-0.104,0.180,-22.794,154.443,34.351,537577
0.946,-0.110,0.207,-22.550,154.412,32.977,541588
0.944,-0.122,0.212,-23.115,154.244,32.382,545600
0.953,-0.113,0.221,-23.542,154.214,31.649,549611
0.965,-0.115,0.234,-23.771,153.878,29.420,553632
0.973,-0.113,0.247,-23.679,152.962,28.687,557643
1.002,-0.116,0.248,-23.893,150.702,28.076,561655
1.019,-0.124,0.255,-23.802,147.496,27.695,565665
1.038,-0.118,0.274,-23.405,143.969,26.473,569676
1.043,-0.117,0.274,-22.733,140.489,23.252,573697
1.020,-0.115,0.280,-22.031,136.809,22.382,577708
1.021,-0.119,0.284,-22.656,132.794,22.794,581719
1.029,-0.106,0.306,-23.206,128.595,23.481,585730
1.051,-0.123,0.308,-23.344,123.710,23.802,589741
1.035,-0.122,0.318,-22.580,120.031,21.802,593752
1.000,-0.130,0.327,-21.573,117.786,19.969,597762
0.969,-0.137,0.332,-21.374,115.099,20.565,601773
0.950,-0.136,0.344,-21.252,114.244,21.069,605784
0.939,-0.141,0.352,-20.794,114.412,20.336,609795
0.906,-0.129,0.359,-19.771,115.252,18.687,613805
0.900,-0.137,0.363,-19.511,115.786,18.290,617816
0.917,-0.144,0.370,-19.389,116.015,18.641,621828
0.945,-0.154,0.376,-19.527,114.870,18.275,625838
0.950,-0.146,0.385,-19.664,113.908,17.542,629849
0.945,-0.150,0.379,-19.130,113.069,16.611,633870
0.921,-0.154,0.387,-19.282,112.763,17.023,637880
0.927,-0.152,0.392,-20.046,110.992,17.756,641891
0.935,-0.163,0.387,-20.824,109.145,18.061,645902
0.952,-0.163,0.400,-21.649,107.176,17.206,649916
0.952,-0.166,0.393,-22.779,104.519,16.000,653927
0.951,-0.179,0.406,-23.679,101.160,14.992,657938
0.948,-0.165,0.398,-23.847,98.076,13.359,661949
0.936,-0.155,0.418,-23.664,94.870,11.786,665961
0.931,-0.150,0.419,-22.718,91.634,10.229,669972
0.913,-0.142,0.430,-21.756,88.687,7.740,673983
0.916,-0.140,0.443,-21.389,85.771,7.374,677995
0.917,-0.145,0.455,-21.267,83.115,7.420,682006
0.919,-0.164,0.451,-20.992,82.275,8.656,686017
0.908,-0.171,0.464,-21.237,81.603,10.198,690028
0.889,-0.167,0.469,-21.466,81.328,9.420,694039
0.875,-0.171,0.470,-21.573,81.634,8.824,698051
0.845,-0.177,0.466,-20.870,82.046,9.237,702062
0.844,-0.173,0.478,-21.618,82.229,10.214,706074
0.844,-0.176,0.482,-21.817,82.779,10.397,710084
0.847,-0.178,0.485,-21.817,83.099,10.244,714095
0.849,-0.169,0.490,-22.046,82.611,9.786,718106
0.853,-0.171,0.495,-22.061,81.130,9.573,722118
0.869,-0.176,0.494,-21.908,78.702,9.802,726128
0.890,-0.176,0.491,-22.092,75.527,9.603,730139
0.897,-0.169,0.488,-22.351,72.198,8.855,734150
0.885,-0.171,0.494,-22.137,69.282,7.771,738157
0.878,-0.169,0.501,-21.847,66.076,7.221,742168
0.873,-0.162,0.515,-21.176,62.809,6.962,746179
0.862,-0.163,0.515,-20.473,59.969,7.313,750190
0.855,-0.149,0.517,-19.527,57.817,7.099,754201
0.850,-0.152,0.528,-18.672,55.802,6.611,758213
0.846,-0.158,0.532,-17.679,53.756,5.756,762225
0.835,-0.159,0.532,-17.313,51.695,5.023,766236
0.827,-0.167,0.525,-16.992,50.168,4.473,770248
0.817,-0.172,0.531,-17.023,48.626,4.534,774259
0.815,-0.174,0.528,-17.115,47.817,4.489,778271
0.805,-0.176,0.540,-16.840,47.206,3.496,782282
0.794,-0.182,0.536,-16.580,46.718,3.557,786293
0.802,-0.187,0.534,-17.267,45.740,4.427,790304
0.811,-0.198,0.539,-17.542,44.611,4.641,794315
0.820,-0.201,0.543,-17.954,43.008,4.366,798329
0.815,-0.194,0.534,-18.015,41.695,3.618,802340
0.817,-0.190,0.538,-17.695,39.740,3.359,806351
0.819,-0.187,0.549,-17.527,37.618,3.298,810362
0.820,-0.181,0.556,-17.069,35.176,3.191,814373
0.812,-0.180,0.551,-16.748,33.176,3.206,818384
0.824,-0.184,0.564,-16.519,30.427,3.008,822395
0.834,-0.181,0.566,-15.893,27.664,2.519,826406
0.830,-0.184,0.567,-15.084,24.565,1.817,830417
0.842,-0.186,0.572,-14.427,21.267,1.511,834428
0.839,-0.184,0.575,-13.817,17.817,0.763,838439
0.839,-0.185,0.571,-13.221,14.534,-0.321,842450
0.848,-0.189,0.582,-12.733,11.053,-1.221,846462
0.834,-0.190,0.581,-12.351,7.588,-2.565,850473
0.821,-0.199,0.576,-11.695,5.038,-3.298,854484
0.796,-0.202,0.573,-11.145,4.443,-3.603,858495
0.760,-0.192,0.584,-10.336,5.282,-3.573,862506
0.728,-0.196,0.581,-9.802,6.840,-2.626,866517
0.719,-0.190,0.569,-9.740,8.611,-1.618,870528
0.725,-0.194,0.565,-9.802,10.687,-1.069,874539
0.741,-0.196,0.567,-9.939,12.305,-0.382,878547
0.749,-0.201,0.560,-9.985,13.405,0.031,882558
0.759,-0.192,0.563,-9.420,14.351,0.336,886569
0.768,-0.186,0.560,-8.687,13.725,0.229,890580
0.773,-0.189,0.564,-8.443,13.267,0.305,894591
0.794,-0.180,0.560,-8.443,11.405,0.779,898602
0.806,-0.179,0.565,-8.153,9.740,0.489,902613
0.814,-0.179,0.558,-7.832,6.977,-0.046,906624
0.824,-0.177,0.561,-7.511,4.229,-0.824,910635
0.830,-0.185,0.559,-7.145,0.840,-1.771,914646
0.836,-0.182,0.558,-7.023,-3.023,-2.748,918657
0.837,-0.189,0.569,-6.977,-6.458,-3.786,922678
0.837,-0.195,0.567,-7.176,-10.046,-5.099,926689
0.839,-0.198,0.564,-7.221,-12.718,-6.397,930700
0.828,-0.203,0.570,-7.511,-14.763,-7.221,934711
0.807,-0.202,0.563,-7.313,-16.382,-7.878,938722
0.792,-0.201,0.571,-7.298,-16.855,-7.924,942735
0.774,-0.195,0.577,-7.573,-16.092,-7.878,946746
0.756,-0.198,0.568,-7.771,-14.443,-7.221,950757
0.732,-0.192,0.557,-7.740,-11.863,-6.427,954768
0.730,-0.185,0.567,-7.527,-8.794,-5.710,958780
0.725,-0.183,0.564,-7.130,-5.695,-4.458,962791
0.730,-0.186,0.557,-6.870,-2.779,-3.664,966802
0.730,-0.186,0.558,-6.260,-0.351,-2.779,970813
0.743,-0.171,0.549,-5.832,2.000,-2.153,974824
0.752,-0.178,0.548,-5.588,3.557,-1.679,978835
0.768,-0.182,0.548,-5.282,4.305,-1.481,982845
0.776,-0.176,0.548,-4.947,4.595,-1.618,986856
0.784,-0.172,0.547,-4.718,3.985,-1.695,990868
0.801,-0.177,0.546,-4.611,3.191,-1.893,994879
0.793,-0.180,0.543,-4.519,2.366,-2.336,998890
0.807,-0.181,0.540,-4.656,1.023,-2.595,1002901
0.810,-0.180,0.542,-4.901,-0.748,-3.130,1006912
0.814,-0.186,0.533,-4.931,-2.672,-3.649,1010924
0.814,-0.187,0.534,-5.130,-4.565,-3.847,1014935
0.812,-0.183,0.536,-5.481,-6.275,-4.473,1018946
0.809,-0.191,0.536,-6.000,-7.908,-4.702,1022967
0.810,-0.192,0.542,-6.336,-9.466,-5.420,1026978
0.802,-0.189,0.539,-6.763,-10.656,-5.618,1030989
0.797,-0.200,0.544,-6.885,-11.832,-5.893,1035000
0.801,-0.192,0.547,-7.191,-11.985,-6.137,1039011
0.783,-0.190,0.545,-7.160,-11.817,-6.107,1043032
0.778,-0.182,0.541,-7.145,-11.863,-5.893,1047043
0.774,-0.187,0.541,-7.145,-11.053,-5.847,1051054
0.776,-0.192,0.540,-6.992,-10.473,-5.313,1055065
0.777,-0.183,0.537,-6.763,-9.481,-4.947,1059076
0.773,-0.187,0.538,-6.473,-8.260,-4.702,1063087
0.774,-0.182,0.550,-6.015,-6.901,-4.000,1067098
0.770,-0.186,0.545,-5.542,-5.725,-3.618,1071109
0.765,-0.180,0.543,-4.962,-4.794,-3.145,1075120
0.777,-0.169,0.547,-4.336,-3.802,-2.611,1079131
0.783,-0.167,0.532,-3.954,-2.656,-2.305,1083141
0.773,-0.177,0.532,-3.557,-1.542,-1.924,1087152
0.783,-0.172,0.534,-3.267,-0.794,-1.740,1091163
0.775,-0.183,0.533,-3.115,-0.244,-1.832,1095174
0.792,-0.188,0.531,-3.237,-0.229,-1.771,1099185
0.793,-0.191,0.511,-3.496,-0.031,-1.817,1103205
0.784,-0.188,0.530,-3.679,0.305,-1.634,1107216
0.780,-0.193,0.532,-3.847,0.779,-1.450,1111227
0.779,-0.194,0.536,-4.000,1.191,-1.130,1115238
0.785,-0.189,0.521,-4.504,1.344,-0.931,1119249
0.788,-0.193,0.531,-5.084,1.481,-0.931,1123269
0.797,-0.198,0.530,-5.481,1.786,-0.916,1127280
0.794,-0.196,0.533,-5.847,1.664,-1.084,1131291
0.800,-0.192,0.529,-5.954,1.282,-1.221,1135302
0.797,-0.196,0.526,-5.924,0.931,-1.145,1139313
0.803,-0.186,0.538,-5.863,0.397,-1.344,1143332
0.803,-0.182,0.542,-5.786,0.015,-1.099,1147343
0.805,-0.182,0.538,-5.557,-0.672,-1.145,1151354
0.806,-0.186,0.531,-5.466,-1.206,-1.221,1155366
0.807,-0.186,0.528,-5.237,-1.863,-1.374,1159377
0.810,-0.177,0.528,-5.252,-2.183,-1.420,1163388
0.805,-0.184,0.528,-4.931,-2.931,-1.832,1167399
0.794,-0.179,0.533,-4.977,-3.191,-2.061,1171410
0.796,-0.195,0.537,-4.809,-3.206,-2.244,1175421
0.784,-0.190,0.534,-5.023,-2.672,-2.290,1179432
0.782,-0.194,0.532,-5.008,-2.000,-1.832,1183443
0.781,-0.190,0.528,-5.023,-1.481,-1.878,1187454
0.781,-0.186,0.522,-4.977,-0.794,-1.588,1191465
0.788,-0.188,0.525,-4.977,-0.137,-1.725,1195477
0.788,-0.191,0.532,-4.748,0.153,-1.618,1199488
0.792,-0.180,0.531,-4.763,-0.244,-1.679,1203498
0.800,-0.181,0.523,-4.901,-0.290,-1.374,1207509
0.809,-0.181,0.532,-4.977,-0.458,-1.298,1211521
0.806,-0.184,0.531,-4.916,-1.008,-1.374,1215532
0.804,-0.187,0.527,-5.038,-1.206,-1.405,1219543
0.802,-0.189,0.527,-5.374,-1.771,-1.374,1223555
0.810,-0.196,0.520,-5.710,-2.168,-1.511,1227566
0.812,-0.189,0.530,-6.122,-2.733,-1.802,1231577
0.809,-0.194,0.527,-6.366,-3.298,-1.878,1235589
0.806,-0.191,0.530,-6.382,-3.863,-2.153,1239600
0.791,-0.186,0.527,-6.260,-3.969,-2.183,1243619
0.789,-0.177,0.534,-6.336,-3.786,-2.336,1247630
0.788,-0.176,0.524,-6.153,-3.313,-2.092,1251641
0.797,-0.179,0.526,-6.351,-3.176,-2.366,1255653
0.795,-0.181,0.527,-6.137,-2.916,-2.183,1259664
0.804,-0.182,0.533,-6.305,-3.069,-2.168,1263684
0.803,-0.180,0.535,-5.771,-3.206,-2.092,1267695
0.806,-0.178,0.529,-5.573,-3.511,-2.168,1271706
0.806,-0.177,0.541,-5.160,-4.351,-2.137,1275717
0.811,-0.181,0.542,-5.053,-5.298,-1.954,1279728
0.812,-0.172,0.532,-4.901,-6.504,-2.107,1283741
0.817,-0.181,0.532,-4.718,-7.084,-2.580,1287752
0.816,-0.180,0.531,-4.992,-8.107,-2.947,1291763
0.819,-0.184,0.528,-5.053,-9.527,-3.405,1295774
0.822,-0.194,0.532,-5.084,-10.916,-3.710,1299785
0.826,-0.190,0.531,-5.099,-12.168,-4.229,1303795
0.832,-0.184,0.529,-4.916,-13.802,-4.718,1307806
0.833,-0.184,0.532,-4.901,-15.435,-5.053,1311816
0.839,-0.185,0.532,-4.977,-17.405,-5.557,1315827
0.841,-0.182,0.529,-5.069,-18.962,-6.168,1319838
0.837,-0.178,0.533,-5.053,-20.641,-6.427,1323858
0.825,-0.179,0.527,-5.176,-21.740,-7.023,1327869
0.826,-0.181,0.528,-4.962,-23.053,-7.099,1331880
0.821,-0.176,0.523,-4.824,-23.939,-7.099,1335891
0.820,-0.175,0.529,-4.641,-24.947,-7.389,1339902
0.824,-0.172,0.526,-4.290,-25.069,-7.221,1343923
0.821,-0.170,0.523,-4.015,-25.618,-7.191,1347934
0.822,-0.176,0.522,-3.924,-25.893,-7.374,1351945
0.821,-0.173,0.519,-3.817,-26.076,-7.298,1355956
0.824,-0.181,0.523,-3.710,-26.198,-7.649,1359967
0.829,-0.169,0.513,-3.649,-26.901,-7.878,1363978
0.830,-0.168,0.523,-3.420,-27.481,-8.183,1367989
0.833,-0.177,0.510,-3.389,-28.550,-8.076,1372000
0.841,-0.172,0.506,-3.298,-29.557,-8.275,1376011
0.853,-0.165,0.506,-3.435,-31.008,-8.519,1380022
0.855,-0.165,0.515,-3.252,-32.656,-8.718,1384033
0.861,-0.171,0.510,-3.145,-35.099,-8.870,1388044
0.871,-0.161,0.504,-3.099,-37.679,-9.206,1392056
0.881,-0.157,0.499,-2.947,-40.809,-9.679,1396067
0.883,-0.162,0.503,-2.794,-43.756,-10.504,1400079
0.891,-0.166,0.487,-2.595,-47.420,-11.176,1404090
0.892,-0.158,0.494,-2.519,-50.870,-11.802,1408097
0.900,-0.156,0.494,-2.565,-54.107,-12.718,1412108
0.905,-0.157,0.481,-2.458,-58.473,-13.298,1416119
0.908,-0.159,0.477,-2.687,-62.702,-14.122,1420130
0.916,-0.155,0.471,-2.550,-66.885,-14.748,1424141
0.923,-0.164,0.468,-2.672,-71.221,-15.573,1428155
0.930,-0.163,0.456,-2.962,-75.802,-16.733,1432167
0.927,-0.164,0.455,-3.069,-79.802,-17.511,1436178
0.920,-0.165,0.457,-3.069,-84.076,-18.214,1440190
0.918,-0.153,0.446,-3.023,-87.649,-19.237,1444201
0.907,-0.152,0.447,-2.550,-90.244,-20.290,1448213
0.901,-0.151,0.439,-2.290,-93.573,-20.718,1452224
0.904,-0.149,0.437,-2.290,-97.466,-20.977,1456236
0.910,-0.164,0.421,-2.748,-99.863,-21.252,1460247
0.929,-0.171,0.413,-3.573,-103.847,-21.221,1464258
0.944,-0.172,0.401,-4.718,-108.168,-21.374,1468270
0.963,-0.187,0.396,-5.954,-112.779,-21.069,1472281
0.973,-0.186,0.409,-6.947,-117.603,-20.977,1476292
0.984,-0.180,0.407,-7.863,-122.168,-20.672,1480303
0.983,-0.176,0.408,-8.672,-127.481,-20.779,1484314
0.988,-0.171,0.409,-10.122,-132.977,-21.664,1488329
1.000,-0.161,0.393,-11.344,-137.252,-21.893,1492340
1.008,-0.160,0.382,-12.504,-142.748,-22.885,1496351
1.028,-0.160,0.378,-13.496,-148.809,-24.244,1500362
1.035,-0.163,0.376,-14.427,-155.969,-26.061,1504373
1.054,-0.158,0.371,-15.252,-163.664,-28.061,1508384
1.063,-0.153,0.359,-15.542,-171.389,-30.840,1512395
1.065,-0.150,0.354,-15.863,-179.206,-32.931,1516406
1.064,-0.144,0.347,-16.000,-186.779,-34.626,1520417
1.063,-0.136,0.346,-16.092,-193.542,-36.153,1524428
1.051,-0.134,0.335,-15.405,-199.603,-38.076,1528439
1.047,-0.123,0.318,-14.534,-204.397,-40.015,1532450
1.032,-0.127,0.317,-13.634,-207.939,-41.527,1536461
1.017,-0.115,0.305,-12.412,-210.443,-43.328,1540472
0.992,-0.110,0.291,-10.565,-211.756,-45.115,1544483
0.977,-0.109,0.292,-8.687,-211.817,-47.389,1548494
0.971,-0.101,0.288,-6.931,-212.229,-49.221,1552505
0.966,-0.090,0.273,-5.099,-212.137,-51.496,1556516
0.970,-0.096,0.253,-3.252,-211.679,-53.740,1560527
0.972,-0.098,0.229,-2.031,-211.053,-54.168,1564538
0.997,-0.108,0.227,-1.420,-211.099,-53.969,1568549
0.994,-0.107,0.210,-0.733,-210.550,-53.008,1572561
1.003,-0.112,0.198,-0.092,-209.481,-52.305,1576572
1.004,-0.112,0.181,0.580,-208.076,-50.641,1580584
0.991,-0.104,0.171,0.809,-206.229,-48.489,1584595
0.973,-0.099,0.153,1.115,-203.710,-46.626,1588606
0.948,-0.095,0.135,2.137,-200.702,-45.313,1592617
0.935,-0.081,0.119,3.099,-196.641,-44.458,1596628
0.921,-0.089,0.097,3.252,-192.748,-42.779,1600639
0.927,-0.078,0.086,3.344,-188.763,-40.702,1604650
0.937,-0.086,0.057,2.947,-185.206,-38.824,1608661
0.933,-0.082,0.053,2.580,-180.824,-37.496,1612682
0.949,-0.086,0.033,1.924,-177.191,-36.092,1616693
0.942,-0.083,0.012,1.328,-173.038,-35.115,1620704
0.942,-0.071,-0.009,1.038,-169.145,-35.313,1624715
0.944,-0.076,-0.020,0.351,-164.443,-34.336,1628726
0.946,-0.070,-0.033,0.214,-160.779,-34.031,1632741
0.957,-0.056,-0.034,-0.519,-156.534,-34.153,1636752
0.978,-0.058,-0.059,-0.748,-154.092,-33.786,1640764
0.999,-0.066,-0.070,-1.511,-154.122,-34.458,1644775
1.042,-0.074,-0.078,-2.595,-153.313,-33.313,1648785
1.060,-0.076,-0.091,-2.458,-153.115,-34.611,1652797
1.078,-0.076,-0.097,-2.870,-152.718,-35.130,1656808
1.094,-0.085,-0.096,-4.092,-153.649,-34.168,1660819
1.131,-0.083,-0.113,-4.260,-156.000,-34.275,1664830
1.164,-0.089,-0.130,-4.519,-159.359,-36.305,1668841
1.187,-0.092,-0.129,-5.252,-164.336,-39.481,1672851
1.216,-0.093,-0.129,-6.290,-169.832,-42.275,1676863
1.239,-0.102,-0.133,-8.504,-175.466,-41.038,1680874
1.254,-0.085,-0.142,-7.832,-180.733,-42.458,1684885
1.231,-0.070,-0.145,-6.382,-185.298,-45.756,1688897
1.203,-0.052,-0.137,-4.580,-188.672,-47.389,1692906
1.169,-0.043,-0.153,-3.954,-190.336,-46.580,1696917
1.152,-0.021,-0.167,-0.763,-191.649,-46.992,1700928
1.111,0.008,-0.178,3.191,-191.160,-49.389,1704940
1.051,0.035,-0.186,6.947,-188.519,-50.947,1708951
0.998,0.058,-0.199,11.115,-185.145,-51.008,1712970
0.976,0.075,-0.203,15.069,-180.885,-49.954,1716981
0.973,0.088,-0.219,19.450,-176.076,-49.328,1720992
0.971,0.086,-0.233,22.870,-170.504,-47.771,1725003
0.953,0.083,-0.253,27.832,-164.580,-49.053,1729014
0.922,0.089,-0.265,31.527,-158.473,-46.763,1733035
0.909,0.096,-0.289,36.076,-153.328,-42.824,1737046
0.898,0.097,-0.292,39.863,-147.069,-39.908,1741058
0.898,0.105,-0.314,42.702,-141.023,-38.260,1745069
0.875,0.091,-0.329,45.756,-135.023,-37.695,1749080
0.854,0.088,-0.348,47.924,-129.603,-37.954,1753092
0.828,0.079,-0.363,49.725,-124.061,-39.435,1757103
0.809,0.060,-0.392,51.053,-118.656,-39.985,1761115
0.821,0.044,-0.404,51.725,-113.160,-38.687,1765126
0.834,0.044,-0.426,52.046,-108.275,-37.328,1769137
0.858,0.030,-0.442,52.183,-103.939,-36.122,1773147
0.880,0.030,-0.451,51.588,-100.779,-34.779,1777158
0.901,0.027,-0.473,50.412,-98.763,-32.794,1781169
0.917,0.021,-0.486,49.115,-97.985,-31.802,1785181
0.937,0.017,-0.497,47.389,-98.061,-30.901,1789192
0.940,0.009,-0.510,45.649,-99.725,-28.901,1793211
0.949,0.010,-0.524,43.588,-102.061,-28.870,1797222
0.941,0.011,-0.549,41.771,-104.321,-30.443,1801233
0.942,0.005,-0.559,39.450,-106.931,-31.237,1805244
0.937,0.002,-0.565,37.573,-109.603,-32.137,1809255
0.936,0.009,-0.569,35.527,-112.061,-32.321,1813274
0.938,0.011,-0.577,33.832,-114.305,-31.969,1817285
0.937,0.016,-0.590,32.534,-116.000,-30.550,1821296
0.936,0.024,-0.597,31.313,-117.908,-29.695,1825307
0.928,0.037,-0.605,30.504,-119.481,-29.282,1829318
0.913,0.042,-0.600,29.695,-121.191,-29.191,1833336
0.904,0.056,-0.616,29.481,-123.191,-28.427,1837347
0.909,0.051,-0.621,29.237,-124.733,-26.550,1841358
0.896,0.044,-0.619,29.038,-126.824,-26.779,1845369
0.903,0.045,-0.622,28.809,-129.237,-26.855,1849380
0.900,0.035,-0.625,28.427,-131.878,-26.885,1853391
0.926,0.033,-0.656,28.931,-136.046,-23.160,1857403
0.952,0.032,-0.631,27.221,-140.382,-22.458,1861413
0.921,0.031,-0.635,25.466,-142.305,-25.206,1865424
0.878,0.049,-0.645,26.076,-145.115,-25.130,1869435
0.853,0.061,-0.646,24.809,-148.015,-25.191,1873447
0.836,0.056,-0.659,25.664,-149.740,-25.863,1877458
0.821,0.046,-0.657,25.450,-150.840,-26.794,1881470
0.815,0.033,-0.656,25.557,-151.221,-27.435,1885480
0.814,0.030,-0.671,26.183,-151.802,-27.145,1889491
0.802,0.033,-0.676,26.260,-152.550,-26.947,1893501
0.787,0.039,-0.680,26.015,-152.382,-27.435,1897512
0.774,0.057,-0.688,26.107,-152.229,-27.695,1901523
0.753,0.054,-0.701,26.519,-151.282,-26.473,1905534
0.728,0.051,-0.709,27.130,-149.740,-25.908,1909545
0.722,0.058,-0.730,27.145,-148.427,-25.191,1913555
0.723,0.053,-0.744,27.038,-148.473,-24.840,1917567
0.726,0.041,-0.734,24.718,-147.557,-27.313,1921578
0.724,0.030,-0.748,24.061,-147.786,-29.420,1925590
0.726,0.011,-0.756,23.466,-147.939,-30.137,1929601
0.725,0.006,-0.770,23.221,-147.863,-29.084,1933620
0.743,0.019,-0.807,24.275,-150.000,-25.450,1937631
0.748,0.020,-0.788,20.855,-149.038,-23.481,1941642
0.727,0.023,-0.800,21.053,-148.107,-23.908,1945654
0.682,0.018,-0.814,19.679,-147.649,-23.969,1949665
0.663,0.019,-0.807,17.252,-147.038,-23.573,1953686
0.662,0.015,-0.825,17.863,-148.336,-24.397,1957697
0.620,0.002,-0.842,18.015,-146.122,-26.977,1961709
0.570,0.040,-0.841,16.595,-141.908,-26.336,1965720
0.567,0.064,-0.858,16.275,-138.534,-22.122,1969731
0.596,0.084,-0.866,17.847,-136.824,-17.573,1973743
0.625,0.063,-0.869,14.641,-133.756,-15.679,1977753
0.640,0.037,-0.876,13.252,-131.176,-15.969,1981764
0.639,0.008,-0.890,13.557,-130.214,-16.305,1985775
0.648,0.014,-0.908,13.725,-131.847,-15.328,1989786
0.643,0.007,-0.906,11.710,-132.626,-15.008,1993799
0.658,0.012,-0.934,10.397,-134.412,-14.626,1997810
0.667,-0.003,-0.919,7.160,-136.641,-14.809,2001821
