acc_x,acc_y,acc_z,gyro_x,gyro_y,gyro_z,time
0.302,-0.051,-1.122,6.137,-8.733,-15.740,0
0.299,-0.041,-1.104,6.687,-8.565,-15.221,4052
0.284,-0.051,-1.102,7.817,-7.725,-14.672,8065
0.276,-0.043,-1.117,8.427,-6.565,-13.756,12076
0.276,-0.039,-1.120,8.702,-5.252,-12.885,16087
0.279,-0.044,-1.120,9.160,-4.076,-12.443,20098
0.273,-0.044,-1.123,9.221,-2.885,-12.061,24109
0.274,-0.052,-1.116,9.573,-1.557,-12.000,28119
0.279,-0.054,-1.113,9.847,-0.519,-11.511,32130
0.292,-0.049,-1.121,10.580,0.397,-11.038,36141
0.299,-0.054,-1.119,10.427,1.389,-10.443,40153
0.298,-0.050,-1.118,10.809,2.916,-10.122,44164
0.291,-0.062,-1.119,10.702,4.382,-10.168,48172
0.278,-0.062,-1.123,11.023,5.969,-9.954,52183
0.288,-0.063,-1.131,11.221,7.252,-9.878,56194
0.292,-0.066,-1.139,10.947,8.718,-9.832,60205
0.298,-0.069,-1.143,11.084,9.954,-10.198,64216
0.313,-0.071,-1.143,11.206,11.099,-10.443,68228
0.321,-0.076,-1.143,11.145,12.260,-10.687,72239
0.318,-0.088,-1.147,11.008,13.206,-10.580,76250
0.323,-0.096,-1.139,10.061,14.351,-10.443,80261
0.329,-0.098,-1.145,8.962,14.855,-9.786,84272
0.338,-0.108,-1.152,7.221,15.496,-9.496,88284
0.340,-0.123,-1.148,5.191,16.137,-9.023,92295
0.352,-0.127,-1.157,3.969,17.130,-8.779,96306
0.353,-0.130,-1.164,1.466,18.321,-8.611,100317
0.332,-0.131,-1.136,-0.153,19.298,-7.817,104328
0.335,-0.126,-1.154,-2.672,21.420,-7.313,108340
0.327,-0.119,-1.143,-4.122,23.573,-6.534,112351
0.325,-0.108,-1.149,-5.328,26.153,-5.878,116363
0.320,-0.111,-1.143,-6.321,29.038,-5.099,120374
0.313,-0.101,-1.149,-7.191,32.183,-4.336,124385
0.308,-0.092,-1.147,-8.092,36.153,-3.969,128396
0.306,-0.100,-1.151,-8.901,41.099,-3.908,132407
0.303,-0.089,-1.153,-9.282,46.153,-4.168,136419
0.297,-0.093,-1.147,-9.557,52.260,-5.038,140429
0.294,-0.084,-1.150,-10.076,58.519,-6.122,144440
0.288,-0.089,-1.163,-10.962,65.435,-7.969,148451
0.288,-0.098,-1.165,-12.168,72.809,-9.847,152462
0.291,-0.107,-1.160,-13.969,80.534,-12.137,156473
0.295,-0.108,-1.165,-15.954,89.176,-14.534,160484
0.296,-0.121,-1.158,-18.473,99.588,-17.160,164495
0.299,-0.129,-1.167,-21.573,110.977,-19.863,168506
0.292,-0.140,-1.173,-25.557,124.489,-23.435,172517
0.286,-0.144,-1.160,-29.176,139.267,-26.779,176528
0.260,-0.137,-1.142,-32.000,155.847,-29.695,180539
0.233,-0.136,-1.148,-34.916,173.267,-31.618,184550
0.226,-0.130,-1.141,-37.985,191.756,-32.870,188561
0.230,-0.114,-1.114,-40.168,209.359,-34.229,192572
0.245,-0.108,-1.097,-41.573,225.756,-35.252,196583
0.268,-0.099,-1.091,-43.389,241.847,-35.481,200594
0.305,-0.096,-1.083,-46.168,257.863,-35.038,204605
0.349,-0.086,-1.083,-48.183,272.489,-34.611,208617
0.398,-0.085,-1.057,-50.244,283.511,-33.924,212628
0.447,-0.079,-1.028,-52.046,291.832,-33.053,216639
0.497,-0.075,-1.022,-54.443,298.061,-32.458,220650
0.520,-0.071,-1.008,-55.542,302.412,-31.832,224661
0.564,-0.056,-1.021,-56.534,305.725,-29.527,228673
0.625,-0.028,-1.000,-58.076,307.389,-25.954,232693
0.661,-0.009,-0.974,-60.122,306.534,-21.405,236703
0.721,0.014,-0.937,-61.588,305.069,-22.015,240714
0.710,0.019,-0.936,-62.244,300.718,-19.191,244725
0.708,0.008,-0.907,-62.305,289.252,-11.359,248736
0.773,0.004,-0.884,-62.061,279.344,-5.298,252747
0.806,-0.005,-0.871,-62.290,270.901,-3.878,256759
0.827,0.021,-0.875,-62.183,264.229,-3.405,260770
0.819,0.028,-0.850,-62.427,257.328,-5.298,264781
0.784,0.033,-0.832,-62.885,250.290,-7.069,268794
0.761,0.037,-0.818,-63.298,243.802,-8.321,272805
0.748,0.034,-0.793,-63.679,238.580,-10.214,276816
0.740,0.033,-0.756,-63.756,234.366,-12.656,280827
0.730,0.034,-0.743,-63.725,230.870,-14.580,284838
0.732,0.025,-0.722,-64.015,228.947,-15.527,288850
0.731,0.026,-0.702,-63.954,228.137,-14.641,292860
0.747,0.025,-0.693,-63.527,227.878,-13.374,296871
0.774,0.030,-0.670,-63.802,228.458,-12.519,300883
0.784,0.026,-0.663,-63.802,229.008,-11.374,304894
0.786,0.016,-0.641,-64.504,229.939,-10.534,308906
0.781,0.009,-0.627,-65.023,231.115,-11.603,312915
0.761,0.008,-0.615,-64.489,231.740,-12.977,316926
0.750,0.028,-0.598,-64.641,232.840,-12.061,320937
0.765,0.036,-0.569,-64.702,233.084,-11.160,324949
0.775,0.046,-0.558,-64.870,233.344,-11.145,328960
0.795,0.064,-0.550,-64.672,231.176,-10.015,332980
0.822,0.063,-0.538,-65.115,228.397,-8.855,336990
0.851,0.059,-0.515,-65.649,223.969,-9.389,341001
0.850,0.056,-0.509,-65.206,218.626,-11.053,345012
0.840,0.053,-0.501,-63.405,213.863,-13.924,349023
0.842,0.067,-0.475,-63.618,210.305,-8.611,353043
0.870,0.100,-0.475,-63.466,207.389,-1.985,357053
0.885,0.103,-0.442,-63.344,204.443,3.115,361064
0.880,0.098,-0.440,-63.008,201.435,5.328,365075
0.848,0.086,-0.426,-61.802,198.336,5.618,369086
0.789,0.077,-0.421,-61.481,196.870,5.496,373099
0.760,0.080,-0.415,-60.198,196.382,5.252,377111
0.752,0.093,-0.395,-58.824,196.870,5.115,381121
0.756,0.109,-0.385,-57.954,198.412,4.977,385132
0.739,0.085,-0.369,-55.511,198.931,1.725,389143
0.757,0.075,-0.345,-55.695,200.504,0.687,393154
0.788,0.113,-0.335,-55.099,201.191,-0.748,397165
0.812,0.072,-0.354,-51.237,198.153,-4.275,401177
0.836,0.112,-0.298,-55.328,199.939,-5.084,405187
0.872,0.160,-0.306,-56.809,198.611,0.153,409198
0.899,0.176,-0.311,-56.122,196.519,6.550,413218
0.927,0.135,-0.273,-57.053,195.969,13.496,417229
0.926,0.095,-0.268,-56.580,193.786,17.252,421241
0.898,0.064,-0.269,-55.802,191.252,19.542,425252
0.862,0.084,-0.264,-54.092,189.069,20.260,429263
0.795,0.083,-0.250,-53.634,189.099,21.679,433283
0.792,0.127,-0.241,-51.481,187.298,25.527,437294
0.797,0.121,-0.221,-51.221,187.374,27.573,441306
0.802,0.110,-0.213,-49.985,189.115,27.939,445316
0.775,0.109,-0.202,-49.038,192.351,28.260,449327
0.769,0.112,-0.190,-48.489,195.573,29.557,453345
0.766,0.115,-0.183,-46.702,197.756,29.863,457357
0.785,0.112,-0.152,-46.443,200.137,30.885,461368
0.787,0.099,-0.136,-45.466,201.924,31.908,465379
0.794,0.102,-0.128,-44.565,204.061,32.473,469390
0.802,0.094,-0.116,-43.206,205.664,34.656,473401
0.801,0.087,-0.095,-43.023,208.092,36.687,477413
0.817,0.097,-0.083,-42.092,210.443,38.962,481424
0.826,0.086,-0.067,-41.786,212.718,41.099,485436
0.842,0.074,-0.051,-40.107,213.786,42.977,489447
0.862,0.054,-0.037,-40.214,215.695,44.183,493458
0.871,0.066,-0.016,-38.382,215.603,45.618,497469
0.863,0.049,-0.008,-37.084,216.229,46.275,501480
0.876,0.047,0.025,-37.115,217.008,49.099,505491
0.891,0.053,0.040,-36.595,218.809,51.771,509502
0.914,0.041,0.065,-34.611,219.221,55.405,513513
0.926,0.024,0.102,-34.061,221.008,57.756,517524
0.928,0.019,0.106,-32.198,221.450,58.641,521535
0.934,0.014,0.135,-31.176,221.878,59.832,525546
0.941,0.012,0.153,-29.679,221.802,60.183,529557
0.941,-0.006,0.173,-28.168,223.130,60.305,533567
0.948,-0.033,0.197,-27.511,224.137,60.107,537578
0.954,-0.033,0.203,-27.832,225.252,60.870,541589
0.973,-0.056,0.218,-28.626,225.130,61.176,545601
1.001,-0.078,0.229,-31.115,225.206,59.924,549612
1.014,-0.099,0.229,-33.481,223.679,58.214,553633
1.010,-0.129,0.245,-36.672,223.695,56.962,557644
1.003,-0.144,0.268,-39.435,224.260,56.595,561656
0.979,-0.144,0.272,-41.863,226.840,56.153,565666
0.954,-0.133,0.306,-44.748,228.473,56.198,569677
0.961,-0.136,0.334,-48.031,228.748,57.344,573698
0.995,-0.126,0.330,-49.450,228.947,59.069,577709
0.986,-0.128,0.365,-51.939,230.947,58.901,581720
0.951,-0.123,0.396,-52.824,234.000,58.107,585731
0.908,-0.112,0.400,-52.290,236.809,59.817,589742
0.896,-0.082,0.440,-50.565,240.229,62.336,593753
0.898,-0.064,0.470,-48.626,243.954,64.779,597763
0.894,-0.044,0.506,-45.191,247.679,67.221,601774
0.910,-0.049,0.522,-42.656,252.198,68.977,605785
0.921,-0.059,0.532,-38.977,255.252,71.481,609796
0.927,-0.057,0.541,-35.664,256.916,71.160,613806
0.924,-0.066,0.558,-33.084,257.603,70.840,617817
0.954,-0.078,0.556,-30.321,254.977,70.443,621829
0.943,-0.091,0.566,-29.511,253.252,66.107,625839
0.962,-0.120,0.556,-28.550,247.023,63.679,629850
0.998,-0.130,0.567,-29.084,240.366,61.145,633871
1.008,-0.146,0.570,-29.008,232.336,56.794,637881
1.012,-0.168,0.569,-30.641,224.137,54.534,641892
1.016,-0.165,0.583,-31.008,214.611,50.733,645903
1.026,-0.171,0.573,-32.733,203.908,47.664,649917
1.038,-0.156,0.598,-33.053,191.298,43.802,653928
1.043,-0.165,0.595,-33.008,178.489,39.099,657939
1.030,-0.157,0.606,-33.298,166.244,35.221,661950
0.972,-0.159,0.615,-33.374,156.901,30.672,665962
0.924,-0.165,0.617,-32.290,149.969,28.458,669973
0.884,-0.171,0.633,-32.931,143.435,27.282,673984
0.892,-0.157,0.613,-32.305,134.550,24.763,677996
0.891,-0.175,0.653,-32.397,128.702,22.458,682007
0.904,-0.170,0.653,-31.069,120.824,20.824,686018
0.902,-0.175,0.651,-31.267,112.992,19.282,690029
0.875,-0.172,0.669,-31.099,107.221,16.748,694040
0.844,-0.177,0.649,-29.603,101.466,15.359,698052
0.827,-0.176,0.670,-28.992,95.649,14.015,702063
0.809,-0.174,0.677,-27.893,90.626,13.618,706075
0.814,-0.165,0.665,-27.130,84.947,14.565,710085
0.792,-0.164,0.676,-26.840,82.534,14.260,714096
0.784,-0.154,0.666,-24.718,79.679,13.725,718107
0.750,-0.163,0.682,-24.015,77.863,13.145,722119
0.725,-0.173,0.681,-24.565,77.679,11.954,726129
0.697,-0.163,0.677,-21.374,76.748,10.397,730140
0.709,-0.174,0.670,-20.443,74.947,12.031,734151
0.729,-0.179,0.686,-22.046,73.405,12.885,738158
0.735,-0.181,0.686,-22.901,72.824,12.794,742169
0.743,-0.187,0.686,-22.702,71.282,12.366,746180
0.733,-0.202,0.700,-22.565,69.023,11.527,750191
0.733,-0.203,0.722,-22.214,66.275,11.099,754202
0.724,-0.197,0.700,-22.931,64.351,9.557,758214
0.714,-0.195,0.719,-20.458,62.656,7.954,762226
0.725,-0.185,0.706,-19.099,59.588,8.061,766237
0.760,-0.173,0.711,-18.412,55.328,8.061,770249
0.790,-0.168,0.714,-18.183,50.198,7.908,774260
0.807,-0.181,0.717,-17.313,44.336,6.687,778272
0.811,-0.189,0.717,-16.275,37.771,4.931,782283
0.794,-0.195,0.716,-15.115,30.947,2.763,786294
0.779,-0.200,0.723,-14.305,23.588,1.359,790305
0.771,-0.200,0.716,-13.634,17.359,0.076,794316
0.762,-0.199,0.717,-13.328,11.496,-1.008,798330
0.758,-0.203,0.709,-13.298,6.153,-2.641,802341
0.748,-0.213,0.718,-13.374,1.496,-4.214,806352
0.739,-0.219,0.714,-13.634,-2.412,-5.634,810363
0.713,-0.214,0.710,-13.832,-5.527,-6.626,814374
0.705,-0.214,0.710,-13.878,-7.939,-7.450,818385
0.698,-0.210,0.716,-13.969,-10.504,-8.321,822396
0.688,-0.215,0.717,-13.985,-11.969,-9.725,826407
0.683,-0.212,0.705,-13.939,-13.282,-10.687,830418
0.679,-0.211,0.708,-13.817,-15.008,-11.634,834429
0.678,-0.208,0.703,-13.527,-15.908,-12.061,838440
0.668,-0.200,0.709,-12.916,-15.771,-12.305,842451
0.664,-0.196,0.709,-12.366,-15.298,-12.321,846463
0.656,-0.192,0.697,-11.481,-15.084,-12.031,850474
0.662,-0.184,0.697,-10.962,-14.244,-12.031,854485
0.660,-0.192,0.696,-10.305,-14.031,-12.000,858496
0.663,-0.179,0.693,-9.603,-13.603,-11.832,862507
0.666,-0.175,0.689,-8.916,-13.786,-12.076,866518
0.666,-0.180,0.683,-8.015,-14.061,-11.710,870529
0.671,-0.173,0.684,-7.435,-14.748,-11.557,874540
0.669,-0.178,0.667,-6.763,-15.130,-10.916,878548
0.666,-0.167,0.672,-6.198,-15.328,-10.366,882559
0.662,-0.171,0.660,-5.908,-15.267,-9.450,886570
0.650,-0.172,0.657,-5.634,-15.145,-8.626,890581
0.648,-0.177,0.667,-5.985,-15.176,-7.725,894592
0.647,-0.180,0.656,-5.817,-15.389,-6.885,898603
0.645,-0.180,0.655,-5.924,-15.405,-6.092,902614
0.646,-0.172,0.653,-5.649,-15.435,-5.237,906625
0.640,-0.164,0.652,-5.435,-15.328,-4.458,910636
0.648,-0.166,0.648,-5.344,-14.779,-3.435,914647
0.641,-0.164,0.646,-5.038,-14.336,-2.947,918658
0.639,-0.161,0.643,-5.313,-13.771,-2.656,922679
0.637,-0.167,0.649,-5.450,-12.962,-2.137,926690
0.638,-0.173,0.649,-6.351,-11.939,-2.107,930701
0.648,-0.180,0.641,-7.206,-10.611,-2.305,934712
0.649,-0.181,0.654,-7.771,-9.954,-2.672,938723
0.660,-0.183,0.644,-7.908,-9.771,-2.824,942736
0.661,-0.182,0.654,-8.198,-9.573,-3.160,946747
0.669,-0.177,0.657,-7.954,-8.519,-2.916,950758
0.663,-0.176,0.665,-7.695,-6.901,-2.473,954769
0.660,-0.172,0.671,-7.313,-5.618,-1.649,958781
0.649,-0.170,0.681,-7.069,-4.260,-1.008,962792
0.659,-0.174,0.672,-6.794,-2.855,-0.229,966803
0.659,-0.186,0.677,-6.443,-1.756,0.260,970814
0.666,-0.180,0.664,-5.893,-0.458,0.916,974825
0.661,-0.189,0.663,-5.649,0.504,1.374,978836
0.673,-0.188,0.668,-5.511,1.084,1.710,982846
0.674,-0.184,0.661,-5.359,1.221,1.863,986857
0.691,-0.182,0.666,-5.328,1.313,1.893,990869
0.692,-0.184,0.665,-5.374,0.870,1.924,994880
0.697,-0.189,0.665,-5.298,0.198,1.695,998891
0.703,-0.191,0.666,-5.649,-0.672,1.267,1002902
0.707,-0.191,0.655,-5.847,-1.740,0.458,1006913
0.709,-0.194,0.661,-6.336,-3.038,-0.351,1010925
0.717,-0.202,0.664,-6.565,-4.779,-1.252,1014936
0.734,-0.200,0.659,-7.084,-6.794,-2.305,1018947
0.739,-0.203,0.667,-7.176,-9.389,-3.542,1022968
0.746,-0.203,0.676,-7.634,-12.061,-4.458,1026979
0.754,-0.203,0.674,-7.832,-14.504,-5.527,1030990
0.748,-0.202,0.676,-7.802,-17.130,-6.382,1035001
0.741,-0.198,0.680,-7.802,-18.687,-7.130,1039012
0.732,-0.201,0.682,-7.878,-20.137,-8.153,1043033
0.735,-0.201,0.685,-8.305,-22.061,-9.023,1047044
0.756,-0.214,0.693,-8.748,-24.519,-10.443,1051055
0.770,-0.222,0.702,-9.160,-27.435,-11.893,1055066
0.792,-0.237,0.717,-9.069,-31.160,-13.542,1059077
0.803,-0.243,0.728,-8.702,-35.573,-15.420,1063088
0.812,-0.226,0.720,-7.939,-39.863,-16.840,1067099
0.825,-0.226,0.737,-7.130,-44.473,-18.183,1071110
0.837,-0.210,0.727,-6.244,-50.672,-20.000,1075121
0.852,-0.217,0.742,-5.969,-58.580,-22.672,1079132
0.866,-0.244,0.751,-6.214,-64.534,-24.366,1083142
0.888,-0.230,0.747,-5.191,-70.702,-26.733,1087153
0.906,-0.221,0.763,-3.817,-78.198,-29.130,1091164
0.906,-0.216,0.752,-2.046,-86.092,-31.847,1095175
0.907,-0.211,0.749,-0.061,-93.649,-34.397,1099186
0.921,-0.192,0.740,1.481,-103.344,-37.053,1103206
0.928,-0.189,0.748,2.504,-111.969,-40.015,1107217
0.953,-0.187,0.731,2.748,-122.031,-43.069,1111228
0.975,-0.205,0.709,2.473,-133.313,-46.931,1115239
1.009,-0.209,0.699,1.954,-145.542,-51.221,1119250
1.046,-0.210,0.698,1.481,-159.298,-55.817,1123270
1.088,-0.214,0.691,0.489,-175.832,-61.176,1127281
1.129,-0.211,0.682,-0.305,-193.969,-66.137,1131292
1.156,-0.202,0.669,-1.145,-212.412,-71.664,1135303
1.169,-0.193,0.671,-0.962,-229.817,-76.580,1139314
1.165,-0.177,0.659,-0.031,-245.389,-80.336,1143333
1.120,-0.167,0.659,0.580,-258.092,-83.985,1147344
1.092,-0.151,0.645,1.466,-269.710,-88.229,1151355
1.040,-0.136,0.635,2.229,-279.374,-95.618,1155367
1.026,-0.117,0.613,3.710,-288.458,-103.603,1159378
1.033,-0.121,0.594,4.031,-298.550,-110.336,1163389
1.107,-0.105,0.580,3.588,-310.809,-113.435,1167400
1.120,-0.151,0.571,0.489,-316.748,-117.267,1171411
1.139,-0.128,0.536,1.878,-328.626,-123.252,1175422
1.142,-0.156,0.541,0.473,-339.420,-128.397,1179433
1.104,-0.134,0.520,1.542,-347.466,-133.496,1183444
1.073,-0.124,0.499,3.740,-354.687,-137.344,1187455
1.030,-0.111,0.498,4.641,-358.992,-140.198,1191466
0.996,-0.078,0.483,7.130,-362.061,-140.641,1195478
0.999,-0.045,0.460,8.382,-364.656,-137.802,1199489
0.965,-0.041,0.457,7.878,-360.885,-136.229,1203499
0.906,-0.032,0.411,9.191,-355.328,-135.618,1207510
0.898,-0.005,0.389,12.641,-352.427,-131.282,1211522
0.847,-0.007,0.365,13.832,-343.939,-127.267,1215533
0.801,0.001,0.344,18.015,-335.252,-124.092,1219544
0.780,0.018,0.305,19.145,-326.137,-117.481,1223556
0.767,0.034,0.292,21.267,-317.344,-112.763,1227567
0.749,0.029,0.249,23.099,-307.389,-110.122,1231578
0.769,0.050,0.213,24.443,-302.031,-104.702,1235590
0.812,0.039,0.179,26.214,-297.603,-100.794,1239601
0.800,0.062,0.167,24.214,-291.802,-90.534,1243620
0.810,0.097,0.111,24.687,-284.901,-81.481,1247631
0.792,0.100,0.104,23.740,-279.084,-76.244,1251642
0.818,0.098,0.072,23.450,-276.412,-70.840,1255654
0.841,0.084,0.040,26.168,-275.863,-67.924,1259665
0.879,0.065,0.033,24.992,-275.573,-63.603,1263685
0.932,0.077,0.019,26.626,-278.214,-57.206,1267696
0.951,0.093,-0.006,29.405,-280.244,-51.557,1271707
0.929,0.115,-0.012,28.733,-278.901,-46.397,1275718
0.886,0.145,-0.042,32.046,-277.573,-40.580,1279729
0.844,0.144,-0.085,33.053,-276.443,-37.893,1283742
0.834,0.163,-0.112,35.389,-275.603,-34.885,1287753
0.795,0.157,-0.121,34.611,-270.931,-33.786,1291764
0.796,0.169,-0.169,37.817,-268.092,-30.779,1295775
0.795,0.165,-0.176,37.344,-264.382,-27.817,1299786
0.780,0.139,-0.196,36.534,-257.679,-25.725,1303796
0.795,0.139,-0.226,37.786,-254.229,-22.168,1307807
0.803,0.109,-0.269,36.916,-249.420,-19.573,1311817
0.840,0.094,-0.288,33.359,-246.336,-18.565,1315828
0.897,0.094,-0.311,32.290,-247.450,-18.580,1319839
0.982,0.054,-0.369,32.473,-253.893,-20.061,1323859
0.974,0.060,-0.348,25.130,-256.168,-14.534,1327870
0.973,0.070,-0.381,22.244,-256.137,-8.641,1331881
0.972,0.086,-0.398,22.015,-259.466,-4.137,1335892
0.935,0.075,-0.387,14.321,-259.527,-2.076,1339903
0.945,0.097,-0.412,16.382,-264.061,0.473,1343924
0.943,0.073,-0.452,14.031,-271.053,0.779,1347935
0.958,0.073,-0.437,12.214,-277.969,-0.336,1351946
0.939,0.071,-0.445,11.969,-284.580,-3.481,1355957
0.922,0.073,-0.454,13.069,-294.198,-6.427,1359968
0.902,0.115,-0.499,13.832,-302.656,-8.092,1363979
0.834,0.140,-0.491,10.550,-303.466,-6.840,1367990
0.844,0.174,-0.525,11.282,-306.076,-4.000,1372001
0.876,0.191,-0.508,10.718,-311.313,-3.069,1376012
0.881,0.159,-0.486,12.214,-316.351,-4.244,1380023
0.851,0.141,-0.493,13.771,-318.901,-6.840,1384034
0.818,0.133,-0.520,17.374,-322.275,-8.061,1388045
0.777,0.127,-0.530,17.405,-325.527,-11.420,1392057
0.760,0.131,-0.529,17.634,-328.809,-14.275,1396068
0.742,0.132,-0.545,16.687,-330.458,-18.076,1400080
0.756,0.118,-0.586,17.802,-335.328,-20.672,1404091
0.764,0.085,-0.602,11.725,-338.321,-23.893,1408098
0.746,0.053,-0.604,9.542,-340.611,-26.702,1412109
0.753,0.048,-0.637,7.115,-345.603,-29.206,1416120
0.731,0.043,-0.613,3.695,-349.573,-31.954,1420131
0.679,0.008,-0.621,-1.511,-350.641,-35.405,1424142
0.653,0.006,-0.625,-3.679,-353.237,-37.756,1428156
0.617,0.016,-0.638,-3.527,-355.481,-37.771,1432168
0.572,0.008,-0.654,-7.771,-353.771,-37.206,1436179
0.556,0.034,-0.666,-10.397,-351.344,-36.275,1440191
0.503,0.038,-0.651,-14.122,-346.061,-37.221,1444202
0.457,0.054,-0.667,-13.023,-342.244,-39.130,1448214
0.430,0.079,-0.693,-10.672,-339.756,-41.481,1452225
0.419,0.076,-0.709,-12.794,-334.519,-42.779,1456237
0.432,0.058,-0.712,-9.878,-330.687,-42.427,1460248
0.431,0.070,-0.727,-11.496,-325.817,-42.122,1464259
0.353,0.082,-0.719,-10.763,-314.076,-39.603,1468271
0.253,0.111,-0.782,-8.489,-298.168,-37.206,1472282
0.158,0.141,-0.808,-4.260,-282.901,-35.008,1476293
0.140,0.113,-0.836,-3.160,-267.420,-33.893,1480304
0.124,0.119,-0.854,0.351,-250.198,-34.046,1484315
0.139,0.109,-0.907,4.412,-234.229,-33.008,1488330
0.163,0.107,-0.890,5.466,-219.786,-30.992,1492341
0.169,0.080,-0.919,3.908,-204.931,-29.069,1496352
0.142,0.081,-0.908,3.847,-188.718,-28.000,1500363
0.118,0.067,-0.940,6.000,-173.511,-26.122,1504374
0.112,0.077,-0.935,7.145,-158.748,-23.634,1508385
0.139,0.086,-0.933,8.397,-145.344,-20.107,1512396
0.129,0.090,-0.969,8.794,-130.458,-18.489,1516407
0.115,0.111,-0.977,8.977,-117.832,-18.305,1520418
0.102,0.119,-0.995,8.565,-105.527,-17.359,1524429
0.093,0.119,-1.014,8.840,-92.290,-16.244,1528440
0.087,0.118,-1.037,8.229,-81.679,-15.634,1532451
0.085,0.124,-1.055,8.183,-71.084,-15.206,1536462
0.097,0.127,-1.061,8.504,-61.435,-14.489,1540473
0.117,0.140,-1.064,9.328,-53.130,-14.153,1544484
0.123,0.151,-1.058,11.710,-46.336,-13.527,1548495
0.133,0.158,-1.073,13.588,-40.046,-12.168,1552506
0.147,0.166,-1.068,15.282,-36.015,-10.687,1556517
0.163,0.157,-1.074,16.931,-32.443,-8.977,1560528
0.177,0.149,-1.078,18.321,-30.244,-7.267,1564539
0.195,0.124,-1.073,19.344,-28.229,-5.389,1568550
0.201,0.120,-1.078,21.282,-26.901,-4.092,1572562
0.201,0.130,-1.096,23.481,-25.664,-2.748,1576573
0.205,0.125,-1.113,25.725,-24.702,-0.977,1580585
0.201,0.132,-1.126,28.534,-23.725,0.687,1584596
0.194,0.136,-1.135,31.389,-22.824,2.702,1588607
0.189,0.144,-1.146,34.244,-19.969,4.321,1592618
0.177,0.129,-1.147,36.763,-16.824,6.260,1596629
0.161,0.131,-1.159,38.901,-13.038,8.092,1600640
0.164,0.123,-1.165,40.198,-9.450,10.137,1604651
0.157,0.109,-1.164,41.084,-6.504,11.527,1608662
0.177,0.105,-1.170,41.450,-3.344,11.817,1612683
0.175,0.090,-1.177,41.679,-0.168,13.237,1616694
0.185,0.075,-1.190,40.977,2.290,14.626,1620705
0.213,0.070,-1.188,39.573,3.252,14.931,1624716
0.246,0.056,-1.200,38.000,2.366,13.802,1628727
0.262,0.044,-1.197,36.382,1.695,12.626,1632742
0.261,0.033,-1.202,34.718,0.992,12.840,1636753
0.264,0.025,-1.218,32.885,0.214,13.237,1640765
0.270,0.019,-1.223,31.176,-0.824,13.115,1644776
0.271,0.022,-1.218,29.817,-1.466,12.305,1648786
0.272,0.028,-1.221,28.595,-2.137,11.939,1652798
0.268,0.032,-1.211,27.435,-2.061,11.176,1656809
0.270,0.031,-1.211,26.595,-2.000,10.489,1660820
0.267,0.032,-1.215,25.115,-2.382,9.969,1664831
0.280,0.020,-1.217,23.252,-3.649,9.908,1668842
0.294,0.012,-1.211,21.176,-5.237,9.069,1672852
0.300,0.007,-1.211,19.511,-6.351,8.244,1676864
0.301,0.002,-1.219,17.924,-7.817,6.794,1680875
0.276,-0.012,-1.211,17.069,-6.931,7.969,1684886
0.286,0.002,-1.205,16.046,-8.885,6.809,1688898
0.290,0.007,-1.195,14.931,-10.809,5.145,1692907
0.269,0.003,-1.194,14.366,-11.023,6.092,1696918
0.250,0.019,-1.192,13.893,-7.863,6.702,1700929
0.237,0.041,-1.182,14.046,-4.473,6.977,1704941
0.230,0.044,-1.185,14.305,-2.107,7.053,1708952
0.234,0.044,-1.177,14.611,-0.412,6.229,1712971
0.225,0.044,-1.170,14.595,2.031,6.031,1716982
0.229,0.041,-1.161,15.038,2.092,6.031,1720993
0.256,0.038,-1.156,15.603,4.351,5.573,1725004
0.260,0.043,-1.158,15.863,6.366,4.031,1729015
0.229,0.041,-1.151,16.031,7.786,3.771,1733036
0.221,0.034,-1.148,16.290,8.290,5.038,1737047
0.234,0.040,-1.143,16.916,8.962,5.359,1741059
0.240,0.038,-1.161,17.649,9.099,5.481,1745070
0.258,0.040,-1.154,17.924,8.947,5.359,1749081
0.260,0.037,-1.153,17.756,9.954,5.847,1753093
0.267,0.029,-1.153,17.588,8.489,5.725,1757104
0.265,0.019,-1.149,16.687,7.511,5.344,1761116
0.252,0.017,-1.158,15.969,7.008,5.237,1765127
0.249,0.006,-1.161,14.626,7.023,4.504,1769138
0.242,0.011,-1.150,13.603,7.786,3.725,1773148
0.233,0.014,-1.156,12.763,9.191,3.282,1777159
0.228,0.029,-1.150,12.198,10.382,2.901,1781170
0.227,0.026,-1.156,11.740,11.557,2.824,1785182
0.243,0.029,-1.161,10.855,12.153,2.641,1789193
0.257,0.013,-1.156,10.046,12.260,2.702,1793212
0.267,0.003,-1.166,9.084,11.496,2.718,1797223
0.271,0.004,-1.148,8.672,11.099,2.779,1801234
0.274,0.003,-1.153,7.908,9.282,2.672,1805245
0.260,0.000,-1.151,7.405,10.855,2.519,1809256
0.254,0.008,-1.151,7.374,8.122,3.649,1813275
0.256,-0.003,-1.146,6.504,5.450,4.672,1817286
0.283,-0.002,-1.153,6.305,4.672,4.702,1821297
0.285,-0.001,-1.147,6.382,4.534,3.740,1825308
0.281,0.011,-1.150,6.305,5.282,3.176,1829319
0.267,0.014,-1.146,6.809,4.931,2.947,1833337
0.251,0.015,-1.139,7.084,5.115,3.084,1837348
0.247,0.009,-1.144,7.466,5.863,3.389,1841359
0.254,0.014,-1.141,7.496,6.473,3.267,1845370
0.255,0.002,-1.139,7.176,7.176,2.931,1849381
0.271,-0.008,-1.138,6.702,6.947,2.351,1853392
0.277,-0.013,-1.140,5.740,6.244,1.725,1857404
0.275,-0.021,-1.142,5.374,5.710,1.695,1861414
0.276,-0.024,-1.139,4.076,4.763,1.588,1865425
0.277,-0.032,-1.140,2.641,3.573,1.313,1869436
0.296,-0.035,-1.142,1.191,2.198,0.824,1873448
0.290,-0.041,-1.135,-0.183,1.542,0.336,1877459
0.287,-0.033,-1.136,-1.420,0.931,-0.336,1881471
0.287,-0.030,-1.136,-2.153,0.305,-0.992,1885481
0.278,-0.021,-1.131,-2.366,0.046,-1.618,1889492
0.270,-0.014,-1.121,-1.893,0.595,-1.771,1893502
0.265,-0.008,-1.123,-1.466,0.947,-1.954,1897513
0.260,-0.008,-1.117,-1.496,1.496,-2.000,1901524
0.265,-0.011,-1.112,-1.740,1.481,-1.954,1905535
0.271,-0.024,-1.117,-2.092,1.496,-1.542,1909546
0.271,-0.029,-1.115,-2.794,1.176,-1.405,1913556
0.270,-0.031,-1.109,-3.405,1.344,-1.466,1917568
0.264,-0.025,-1.110,-4.122,1.466,-1.405,1921579
0.257,-0.020,-1.099,-4.214,2.168,-1.405,1925591
0.246,0.001,-1.087,-4.000,2.611,-1.344,1929602
0.254,0.005,-1.097,-3.420,3.282,-1.130,1933621
0.261,0.014,-1.098,-2.733,3.847,-0.885,1937632
0.275,0.011,-1.101,-2.397,3.328,-0.733,1941643
0.283,-0.003,-1.105,-2.611,2.702,-0.290,1945655
0.303,-0.008,-1.101,-2.641,1.115,-0.458,1949666
0.302,-0.027,-1.097,-2.962,-0.244,-0.656,1953687
0.294,-0.032,-1.090,-3.618,-1.847,-0.794,1957698
0.286,-0.032,-1.083,-4.611,-3.053,-1.008,1961710
0.288,-0.027,-1.092,-5.695,-3.481,-1.206,1965721
0.277,-0.024,-1.090,-6.855,-3.328,-1.573,1969732
0.277,-0.009,-1.094,-7.481,-2.885,-2.076,1973744
0.272,-0.010,-1.084,-8.000,-2.275,-2.214,1977754
0.271,0.001,-1.075,-7.893,-0.870,-2.626,1981765
0.267,0.002,-1.077,-7.588,0.046,-2.916,1985776
0.271,0.007,-1.065,-6.641,1.679,-2.672,1989787
0.260,0.015,-1.068,-5.573,3.008,-2.382,1993800
0.252,0.017,-1.068,-4.382,4.183,-2.092,1997811
0.255,0.015,-1.059,-3.099,5.710,-1.603,2001822
