acc_x,acc_y,acc_z,gyro_x,gyro_y,gyro_z,time
0.270,-0.035,-1.092,-4.611,0.198,0.107,734326740
0.274,-0.036,-1.097,-4.718,0.412,0.122,734330773
0.277,-0.035,-1.099,-4.840,0.458,0.366,734334784
0.274,-0.032,-1.101,-4.641,0.519,0.351,734338795
0.278,-0.036,-1.100,-4.824,0.748,0.366,734342806
0.281,-0.038,-1.099,-4.824,0.641,0.183,734346817
0.268,-0.039,-1.105,-4.916,0.916,0.153,734350828
0.280,-0.035,-1.110,-5.237,0.748,0.107,734354839
0.271,-0.037,-1.098,-5.176,0.855,0.229,734358850
0.277,-0.026,-1.102,-5.359,0.901,0.076,734362861
0.274,-0.031,-1.093,-5.145,1.069,0.153,734366872
0.272,-0.029,-1.104,-5.374,1.435,0.214,734370883
0.268,-0.034,-1.101,-5.359,1.481,0.290,734374894
0.282,-0.031,-1.109,-5.740,1.649,0.427,734378906
0.281,-0.037,-1.102,-5.985,1.740,0.656,734382916
0.281,-0.040,-1.099,-6.168,1.756,0.809,734386927
0.283,-0.041,-1.105,-6.244,1.695,0.840,734390938
0.282,-0.039,-1.102,-6.061,1.634,0.901,734394950
0.275,-0.038,-1.102,-6.137,1.756,0.977,734398961
0.268,-0.041,-1.102,-6.260,1.908,0.733,734402973
0.277,-0.033,-1.097,-6.275,1.802,0.656,734406984
0.278,-0.033,-1.101,-6.534,1.832,0.473,734410995
0.279,-0.031,-1.102,-6.580,2.015,0.305,734415007
0.281,-0.029,-1.098,-6.321,2.397,0.214,734419018
0.276,-0.032,-1.100,-6.366,2.458,0.168,734423029
0.272,-0.032,-1.101,-6.168,2.458,0.366,734427040
0.272,-0.035,-1.100,-6.275,2.550,0.473,734431051
0.280,-0.035,-1.104,-6.290,2.779,0.214,734435063
0.279,-0.029,-1.086,-6.458,2.840,0.336,734439073
0.274,-0.027,-1.095,-6.336,3.008,0.504,734443084
0.271,-0.025,-1.099,-6.061,2.931,0.504,734447095
0.274,-0.031,-1.099,-6.107,2.962,0.687,734451106
0.287,-0.031,-1.094,-5.985,3.130,0.901,734455117
0.279,-0.025,-1.089,-5.863,3.191,0.733,734459128
0.287,-0.034,-1.091,-6.061,3.069,0.519,734463140
0.288,-0.033,-1.100,-6.168,3.008,0.733,734467150
0.281,-0.032,-1.097,-6.290,3.023,0.504,734471161
0.278,-0.028,-1.090,-6.397,3.069,0.779,734475172
0.286,-0.032,-1.099,-6.260,2.947,0.687,734479183
0.281,-0.034,-1.106,-6.244,2.794,0.534,734483194
0.280,-0.030,-1.096,-6.046,3.023,0.687,734487205
0.281,-0.035,-1.101,-6.351,2.855,0.641,734491216
0.284,-0.032,-1.094,-6.412,3.008,0.626,734495227
0.283,-0.032,-1.096,-6.519,3.115,0.443,734499238
0.279,-0.039,-1.090,-6.366,3.588,0.321,734503249
0.275,-0.036,-1.084,-6.412,3.450,0.443,734507260
0.281,-0.032,-1.093,-6.351,3.695,0.519,734511271
0.278,-0.039,-1.097,-6.168,3.985,0.412,734515282
0.274,-0.023,-1.097,-6.137,3.863,0.519,734519293
0.276,-0.039,-1.089,-6.122,3.969,0.458,734523304
0.290,-0.035,-1.094,-6.183,4.122,0.412,734527315
0.285,-0.026,-1.095,-6.092,4.107,0.366,734531326
0.282,-0.028,-1.083,-5.954,4.061,0.397,734535338
0.288,-0.032,-1.101,-5.863,4.412,0.351,734539349
0.272,-0.034,-1.087,-5.771,4.198,0.305,734543360
0.281,-0.029,-1.087,-5.908,4.076,0.015,734547371
0.282,-0.025,-1.092,-5.786,3.954,0.122,734551382
0.287,-0.030,-1.091,-5.695,4.031,-0.046,734555394
0.281,-0.031,-1.094,-5.786,4.046,-0.046,734559414
0.291,-0.029,-1.090,-5.740,3.481,0.153,734563425
0.284,-0.029,-1.091,-5.649,3.695,0.046,734567436
0.287,-0.030,-1.100,-5.771,3.908,-0.122,734571447
0.282,-0.026,-1.093,-5.481,3.450,-0.214,734575460
0.286,-0.026,-1.095,-5.740,3.374,0.000,734579471
0.285,-0.027,-1.093,-5.847,3.328,-0.229,734583483
0.300,-0.021,-1.098,-5.832,3.160,-0.260,734587493
0.285,-0.022,-1.090,-5.466,2.748,-0.168,734591504
0.292,-0.021,-1.081,-5.420,2.580,-0.015,734595515
0.290,-0.016,-1.096,-5.420,2.473,-0.107,734599527
0.282,-0.018,-1.088,-5.282,2.321,-0.015,734603538
0.293,-0.017,-1.080,-5.160,2.015,-0.015,734607550
0.286,-0.019,-1.085,-4.947,1.786,-0.061,734611561
0.287,-0.017,-1.085,-4.672,1.542,0.000,734615571
0.282,-0.018,-1.093,-4.305,1.359,-0.183,734619583
0.279,-0.020,-1.086,-4.046,1.115,-0.290,734623593
0.285,-0.022,-1.089,-3.847,0.809,-0.290,734627604
0.293,-0.022,-1.096,-3.802,0.672,-0.275,734631615
0.287,-0.021,-1.098,-3.710,0.290,-0.198,734635627
0.284,-0.026,-1.099,-3.893,0.519,-0.137,734639637
0.283,-0.034,-1.090,-3.863,0.489,-0.229,734643648
0.285,-0.035,-1.092,-3.847,0.336,-0.534,734647659
0.279,-0.029,-1.089,-3.908,0.885,-0.824,734651671
0.281,-0.035,-1.105,-3.924,0.473,-0.809,734655682
0.290,-0.037,-1.099,-4.031,0.840,-0.916,734659702
0.286,-0.039,-1.104,-4.275,0.977,-1.206,734663713
0.289,-0.033,-1.095,-4.336,0.718,-1.084,734667724
0.284,-0.026,-1.093,-4.336,1.038,-1.344,734671735
0.285,-0.033,-1.103,-4.351,0.977,-1.328,734675746
0.288,-0.029,-1.105,-4.168,1.237,-1.359,734679767
0.285,-0.029,-1.101,-4.305,1.221,-1.588,734683778
0.288,-0.029,-1.101,-4.305,1.130,-1.542,734687789
0.282,-0.033,-1.103,-4.427,1.237,-1.389,734691800
0.286,-0.025,-1.107,-4.641,1.084,-1.237,734695811
0.288,-0.028,-1.098,-4.824,1.038,-0.977,734699829
0.285,-0.031,-1.104,-4.962,0.947,-0.748,734703840
0.289,-0.037,-1.107,-4.992,0.809,-0.855,734707852
0.283,-0.028,-1.097,-5.038,0.626,-0.824,734711863
0.285,-0.038,-1.094,-5.130,0.366,-0.641,734715874
0.281,-0.037,-1.105,-5.511,0.321,-0.656,734719884
0.287,-0.029,-1.098,-5.588,0.275,-0.809,734723895
0.289,-0.033,-1.099,-5.634,0.214,-0.534,734727906
0.289,-0.032,-1.097,-5.634,0.427,-0.489,734731917
0.287,-0.033,-1.108,-5.527,0.458,-0.718,734735928
0.274,-0.028,-1.096,-5.344,0.427,-0.565,734739938
0.282,-0.029,-1.102,-5.252,0.931,-0.977,734743949
0.278,-0.029,-1.100,-5.542,0.992,-1.084,734747960
0.276,-0.029,-1.098,-5.405,1.466,-1.069,734751971
0.278,-0.029,-1.094,-5.282,1.756,-1.282,734755983
0.282,-0.025,-1.097,-5.267,2.153,-1.389,734760003
0.275,-0.030,-1.096,-5.130,2.305,-1.221,734764014
0.276,-0.030,-1.103,-5.099,2.840,-1.344,734768025
0.281,-0.034,-1.100,-5.313,2.962,-1.450,734772037
0.275,-0.033,-1.103,-5.649,3.069,-1.359,734776048
0.281,-0.037,-1.104,-5.969,2.977,-1.420,734780069
0.284,-0.038,-1.098,-5.878,3.023,-1.466,734784080
0.280,-0.036,-1.095,-5.985,2.672,-1.328,734788092
0.284,-0.040,-1.101,-6.229,2.397,-1.206,734792103
0.282,-0.032,-1.093,-6.183,2.168,-1.282,734796114
0.281,-0.037,-1.098,-6.504,1.618,-1.374,734800126
0.289,-0.035,-1.090,-6.656,1.099,-1.450,734804136
0.284,-0.032,-1.086,-6.931,1.267,-1.099,734808147
0.281,-0.039,-1.095,-6.870,0.901,-1.053,734812158
0.277,-0.034,-1.092,-7.008,0.916,-0.962,734816169
0.275,-0.030,-1.099,-6.870,0.550,-0.977,734820180
0.276,-0.034,-1.086,-6.672,0.809,-0.809,734824192
0.280,-0.024,-1.090,-6.855,0.550,-0.718,734828203
0.273,-0.027,-1.094,-6.641,0.519,-0.733,734832214
0.269,-0.029,-1.086,-6.580,0.504,-0.672,734836225
0.270,-0.019,-1.082,-6.504,0.885,-0.626,734840236
0.272,-0.017,-1.094,-6.458,0.779,-0.733,734844246
0.278,-0.021,-1.088,-6.183,1.023,-0.656,734848257
0.269,-0.021,-1.093,-5.817,1.130,-0.489,734852268
0.271,-0.023,-1.084,-5.710,1.069,-0.595,734856279
0.273,-0.026,-1.082,-5.542,1.115,-0.305,734860289
0.274,-0.026,-1.083,-5.618,1.008,-0.397,734864301
0.278,-0.024,-1.084,-5.313,0.931,-0.382,734868311
0.280,-0.025,-1.086,-5.191,1.053,-0.351,734872322
0.281,-0.027,-1.076,-5.099,0.977,-0.504,734876333
0.277,-0.026,-1.087,-4.977,1.099,-0.748,734880353
0.277,-0.025,-1.079,-4.794,0.992,-0.626,734884364
0.276,-0.026,-1.086,-4.809,0.779,-0.672,734888375
0.279,-0.026,-1.078,-4.672,1.038,-0.489,734892386
0.280,-0.028,-1.087,-4.565,0.763,-0.504,734896397
0.284,-0.019,-1.086,-4.244,0.718,-0.443,734900417
0.279,-0.029,-1.091,-4.122,0.519,-0.458,734904429
0.285,-0.027,-1.083,-4.031,0.351,-0.382,734908440
0.280,-0.031,-1.081,-3.832,0.351,-0.260,734912452
0.278,-0.024,-1.084,-3.847,0.198,-0.168,734916463
0.285,-0.028,-1.083,-3.863,0.290,-0.198,734920481
0.285,-0.020,-1.082,-3.863,0.137,-0.183,734924491
0.292,-0.022,-1.089,-3.954,0.046,-0.183,734928503
0.281,-0.032,-1.083,-3.924,0.275,-0.168,734932513
0.292,-0.027,-1.088,-3.939,-0.092,-0.198,734936524
0.282,-0.031,-1.088,-3.802,0.122,-0.366,734940534
0.284,-0.025,-1.099,-4.000,-0.214,-0.565,734944545
0.282,-0.034,-1.092,-3.985,-0.412,-0.504,734948556
0.286,-0.032,-1.088,-4.137,-0.290,-0.229,734952567
0.282,-0.027,-1.091,-3.939,0.015,-0.550,734956578
0.284,-0.029,-1.093,-3.756,-0.275,-0.718,734960598
0.288,-0.030,-1.093,-3.893,-0.122,-0.824,734964608
0.284,-0.031,-1.092,-3.847,-0.031,-0.763,734968620
0.280,-0.032,-1.087,-3.878,-0.153,-1.008,734972630
0.283,-0.030,-1.096,-4.046,0.427,-0.901,734976641
0.280,-0.017,-1.099,-3.847,0.565,-1.084,734980662
0.279,-0.024,-1.090,-3.954,0.794,-1.053,734984672
0.279,-0.024,-1.098,-3.679,1.023,-1.069,734988683
0.278,-0.033,-1.087,-3.756,0.824,-1.160,734992694
0.290,-0.025,-1.099,-3.573,1.008,-1.221,734996705
0.287,-0.032,-1.091,-3.832,1.069,-1.237,735000716
0.286,-0.030,-1.104,-3.756,1.023,-1.252,735004728
0.283,-0.032,-1.092,-3.908,0.702,-0.992,735008739
0.288,-0.031,-1.088,-3.969,0.198,-1.008,735012750
0.285,-0.036,-1.094,-3.908,0.473,-0.977,735016761
0.285,-0.031,-1.096,-4.000,0.122,-0.901,735020772
0.288,-0.032,-1.089,-4.397,-0.290,-1.099,735024784
0.283,-0.026,-1.104,-4.595,-0.153,-1.267,735028794
0.283,-0.028,-1.089,-4.763,-0.214,-1.313,735032805
0.270,-0.035,-1.091,-4.885,-0.107,-1.664,735036816
0.273,-0.021,-1.100,-4.748,0.061,-1.664,735040827
0.275,-0.030,-1.098,-4.870,0.336,-1.634,735044838
0.271,-0.025,-1.092,-4.794,0.473,-1.374,735048849
0.280,-0.023,-1.103,-4.687,0.580,-1.557,735052860
0.269,-0.026,-1.099,-4.840,0.840,-1.710,735056872
0.272,-0.024,-1.104,-4.870,1.206,-1.542,735060883
0.268,-0.027,-1.103,-4.763,1.359,-1.588,735064894
0.270,-0.028,-1.088,-4.382,1.542,-1.634,735068905
0.273,-0.028,-1.102,-4.504,1.420,-1.435,735072916
0.274,-0.028,-1.093,-4.275,1.435,-1.481,735076927
0.277,-0.026,-1.088,-4.198,1.679,-1.435,735080938
0.276,-0.029,-1.092,-4.473,1.664,-1.237,735084950
0.274,-0.029,-1.092,-4.382,1.618,-1.252,735088961
0.276,-0.028,-1.086,-4.626,1.786,-1.145,735092973
0.277,-0.023,-1.080,-4.550,1.542,-1.053,735096984
0.270,-0.020,-1.083,-4.489,1.649,-1.023,735100995
0.272,-0.027,-1.088,-4.290,1.511,-1.221,735105007
0.275,-0.021,-1.087,-4.412,1.511,-1.115,735109018
0.270,-0.026,-1.095,-4.534,1.435,-1.420,735113029
0.271,-0.025,-1.080,-4.412,1.252,-1.191,735117040
0.265,-0.026,-1.081,-4.275,1.237,-0.992,735121051
0.267,-0.030,-1.089,-4.061,1.084,-0.901,735125063
0.267,-0.026,-1.088,-3.969,1.252,-0.779,735129073
0.268,-0.020,-1.083,-3.908,1.496,-0.489,735133084
0.274,-0.021,-1.076,-3.756,1.191,-0.473,735137095
0.272,-0.029,-1.084,-3.756,1.160,-0.275,735141106
0.269,-0.036,-1.082,-3.756,0.947,0.000,735145117
0.264,-0.024,-1.083,-3.740,1.038,0.046,735149128
0.273,-0.029,-1.087,-3.588,1.130,0.366,735153140
0.274,-0.028,-1.091,-3.542,0.901,0.412,735157150
0.272,-0.028,-1.091,-3.603,0.718,0.550,735161161
0.277,-0.031,-1.098,-3.374,0.763,0.443,735165172
0.275,-0.034,-1.096,-3.374,0.718,0.275,735169183
0.271,-0.032,-1.089,-3.359,0.473,0.427,735173194
0.274,-0.030,-1.093,-3.511,0.504,0.214,735177205
0.274,-0.035,-1.099,-3.573,0.351,0.366,735181216
0.279,-0.028,-1.095,-3.328,-0.046,0.290,735185227
0.277,-0.028,-1.097,-3.389,-0.031,0.397,735189238
0.283,-0.037,-1.100,-3.359,-0.061,0.366,735193249
0.274,-0.034,-1.107,-3.542,-0.244,0.122,735197260
0.274,-0.035,-1.113,-3.725,-0.260,0.168,735201271
0.267,-0.039,-1.108,-3.893,-0.519,0.305,735205282
0.280,-0.040,-1.099,-4.107,-0.458,0.260,735209293
0.281,-0.036,-1.100,-4.321,-0.763,0.183,735213304
0.276,-0.043,-1.106,-4.427,-0.748,0.076,735217315
0.273,-0.039,-1.094,-4.351,-0.595,0.031,735221326
0.269,-0.034,-1.104,-4.397,-0.840,0.107,735225338
0.268,-0.029,-1.104,-4.443,-0.763,0.214,735229349
0.271,-0.035,-1.103,-4.733,-0.779,0.473,735233360
0.271,-0.032,-1.097,-4.748,-0.977,0.382,735237371
0.276,-0.037,-1.102,-4.641,-1.038,0.565,735241382
0.278,-0.030,-1.108,-4.443,-0.885,1.023,735245394
0.282,-0.041,-1.111,-4.458,-0.794,0.840,735249414
0.275,-0.030,-1.104,-4.366,-1.298,1.176,735253425
0.277,-0.035,-1.104,-4.412,-1.481,1.084,735257436
0.278,-0.046,-1.104,-4.565,-1.878,1.206,735261447
0.280,-0.039,-1.096,-4.534,-1.969,1.389,735265460
0.279,-0.041,-1.105,-4.824,-2.076,1.267,735269471
0.279,-0.044,-1.105,-4.962,-2.351,1.466,735273483
0.277,-0.041,-1.098,-5.053,-2.748,1.206,735277493
0.279,-0.052,-1.110,-5.496,-2.718,1.221,735281504
0.274,-0.041,-1.110,-5.664,-2.901,1.267,735285515
0.273,-0.041,-1.106,-6.046,-3.008,1.359,735289527
0.269,-0.043,-1.110,-6.229,-2.931,1.160,735293538
0.268,-0.040,-1.108,-6.397,-2.473,0.947,735297550
0.266,-0.040,-1.095,-6.550,-1.939,0.855,735301561
0.260,-0.036,-1.097,-6.656,-1.740,0.870,735305571
0.255,-0.034,-1.096,-6.565,-1.237,0.962,735309583
0.260,-0.033,-1.097,-6.336,-0.595,0.763,735313593
0.254,-0.031,-1.106,-6.412,-0.260,0.580,735317604
0.249,-0.030,-1.096,-6.382,0.397,0.580,735321615
0.249,-0.024,-1.111,-6.183,1.023,0.473,735325627
0.246,-0.027,-1.099,-6.137,1.664,0.565,735329637
0.252,-0.031,-1.090,-6.153,2.260,0.687,735333648
0.246,-0.027,-1.098,-5.908,2.458,0.641,735337659
0.246,-0.026,-1.095,-6.046,3.237,0.595,735341670
0.244,-0.028,-1.099,-6.122,3.344,0.641,735345682
0.246,-0.025,-1.089,-6.092,3.695,0.916,735349701
0.245,-0.025,-1.083,-6.046,3.878,0.916,735353712
0.244,-0.021,-1.096,-6.031,4.229,0.977,735357723
0.253,-0.022,-1.083,-6.107,4.244,1.145,735361735
0.250,-0.021,-1.086,-5.908,4.122,1.344,735365746
0.256,-0.027,-1.089,-5.908,3.817,1.802,735369767
0.253,-0.032,-1.091,-6.183,4.092,1.817,735373778
0.260,-0.027,-1.089,-6.046,3.786,2.198,735377790
0.255,-0.026,-1.099,-6.321,3.466,2.275,735381800
0.259,-0.030,-1.090,-6.565,3.069,2.580,735385811
0.263,-0.034,-1.094,-6.885,2.931,2.580,735389829
0.264,-0.038,-1.092,-6.962,2.947,2.672,735393840
0.271,-0.036,-1.090,-7.053,2.763,2.702,735397851
0.274,-0.035,-1.086,-7.099,2.183,2.962,735401862
0.274,-0.037,-1.091,-6.931,1.954,3.191,735405873
0.275,-0.036,-1.099,-7.023,1.725,3.435,735409883
0.275,-0.042,-1.104,-6.840,1.527,3.481,735413894
0.273,-0.043,-1.090,-6.809,1.710,3.695,735417905
0.273,-0.038,-1.099,-6.702,1.496,3.359,735421916
0.275,-0.037,-1.099,-6.260,1.573,3.298,735425927
0.272,-0.030,-1.101,-6.061,2.031,3.328,735429937
0.279,-0.045,-1.104,-5.954,2.336,3.206,735433948
0.273,-0.036,-1.096,-5.679,2.244,3.206,735437959
0.279,-0.042,-1.097,-5.679,2.870,2.977,735441971
0.278,-0.042,-1.095,-5.466,3.206,2.824,735445982
0.280,-0.050,-1.099,-5.206,3.450,2.534,735450003
0.275,-0.042,-1.104,-4.962,3.954,2.137,735454014
0.278,-0.043,-1.108,-4.962,4.198,2.015,735458025
0.275,-0.040,-1.101,-5.084,4.519,1.740,735462036
0.281,-0.042,-1.096,-5.191,5.160,1.511,735466047
0.281,-0.035,-1.090,-5.145,5.634,1.405,735470068
0.274,-0.034,-1.087,-4.992,6.275,1.053,735474079
0.279,-0.041,-1.097,-4.733,6.718,0.870,735478090
0.276,-0.031,-1.098,-4.626,6.794,0.992,735482101
0.280,-0.028,-1.099,-4.580,7.145,0.733,735486112
0.287,-0.034,-1.095,-4.489,7.405,0.702,735490126
0.285,-0.034,-1.100,-4.397,7.527,0.641,735494136
0.288,-0.030,-1.098,-4.305,7.634,0.458,735498147
0.287,-0.034,-1.104,-4.198,7.771,0.626,735502158
0.285,-0.044,-1.093,-4.092,7.389,0.687,735506169
0.290,-0.042,-1.095,-4.153,7.237,0.748,735510180
0.289,-0.050,-1.092,-4.229,7.008,0.611,735514192
0.292,-0.038,-1.098,-4.458,6.763,0.565,735518203
0.289,-0.039,-1.097,-4.489,6.702,0.611,735522214
0.292,-0.029,-1.105,-4.763,6.916,0.458,735526225
0.283,-0.040,-1.093,-4.885,6.992,0.153,735530236
0.282,-0.032,-1.092,-5.053,7.389,0.015,735534246
0.268,-0.029,-1.089,-5.053,7.908,-0.244,735538257
0.273,-0.031,-1.091,-4.947,9.115,-0.473,735542268
0.262,-0.031,-1.098,-4.992,10.687,-0.870,735546279
0.253,-0.031,-1.102,-5.038,13.359,-1.496,735550289
0.237,-0.026,-1.094,-4.504,16.595,-2.244,735554301
0.222,-0.027,-1.087,-3.893,20.626,-2.809,735558311
0.219,-0.021,-1.089,-3.130,25.115,-3.695,735562322
0.199,-0.017,-1.083,-2.718,30.672,-4.672,735566333
0.186,-0.025,-1.089,-2.092,36.931,-6.168,735570353
0.177,-0.023,-1.086,-1.817,44.031,-7.527,735574364
0.164,-0.019,-1.088,-1.313,52.351,-9.298,735578375
0.146,-0.028,-1.070,-0.809,62.366,-11.130,735582386
0.112,-0.020,-1.076,1.008,75.450,-12.962,735586397
0.077,-0.004,-1.098,3.863,89.435,-15.221,735590417
0.037,-0.007,-1.078,4.901,106.122,-16.916,735594429
0.020,-0.004,-1.073,6.992,123.221,-18.977,735598440
0.029,-0.004,-1.070,8.229,140.427,-21.481,735602452
0.019,-0.020,-1.060,8.580,160.000,-23.221,735606463
0.036,-0.022,-1.045,8.931,180.565,-26.000,735610481
0.028,-0.032,-1.023,8.305,201.954,-28.229,735614491
0.028,-0.048,-1.008,6.611,224.244,-30.092,735618503
0.054,-0.059,-0.991,4.122,246.260,-31.374,735622513
0.074,-0.080,-0.985,1.099,268.214,-32.244,735626524
0.100,-0.098,-0.984,-3.344,290.336,-33.176,735630534
0.131,-0.119,-0.973,-8.916,312.565,-33.466,735634545
0.181,-0.119,-0.962,-14.305,331.847,-33.954,735638556
0.216,-0.143,-0.924,-20.779,351.145,-35.298,735642567
0.241,-0.154,-0.918,-26.901,373.725,-36.718,735646578
0.266,-0.153,-0.953,-33.664,396.153,-38.107,735650598
0.267,-0.162,-0.905,-41.466,419.084,-38.427,735654608
0.268,-0.166,-0.894,-47.908,441.466,-38.504,735658620
0.289,-0.150,-0.876,-52.763,462.321,-37.954,735662630
0.317,-0.139,-0.842,-57.420,481.542,-37.130,735666641
0.380,-0.131,-0.817,-62.122,497.420,-35.832,735670662
0.454,-0.116,-0.786,-66.046,500.260,-34.626,735674672
0.540,-0.097,-0.749,-68.641,500.260,-32.931,735678683
0.616,-0.082,-0.684,-70.122,500.260,-30.595,735682694
0.678,-0.057,-0.609,-71.069,500.260,-25.786,735686705
0.724,-0.036,-0.562,-71.756,500.260,-19.832,735690716
0.742,-0.033,-0.525,-72.824,500.260,-12.397,735694728
0.773,-0.027,-0.482,-72.931,500.260,-4.504,735698739
0.811,0.006,-0.501,-71.206,500.260,2.260,735702750
0.824,-0.014,-0.416,-71.664,500.260,7.359,735706761
0.862,-0.001,-0.355,-71.435,500.260,11.954,735710772
0.918,0.005,-0.328,-72.137,500.260,16.000,735714784
0.978,0.023,-0.286,-72.672,500.260,19.649,735718794
1.011,0.036,-0.263,-74.504,500.260,22.718,735722805
1.032,0.050,-0.241,-75.573,500.260,25.221,735726816
1.049,0.053,-0.241,-75.771,500.260,27.511,735730827
1.076,0.064,-0.208,-76.534,500.260,29.710,735734838
1.090,0.066,-0.197,-77.863,500.260,30.550,735738849
1.201,0.042,-0.193,-79.191,500.260,35.221,735742860
1.178,-0.060,-0.089,-81.420,483.969,40.840,735746872
1.177,0.081,-0.290,-74.595,476.397,34.015,735750883
1.173,0.127,-0.078,-75.878,477.267,25.573,735754894
1.261,0.240,0.139,-84.595,479.939,19.450,735758905
1.291,0.214,-0.313,-73.863,442.718,20.489,735762916
1.184,0.154,-0.038,-75.969,402.198,19.084,735766927
1.181,0.153,0.020,-75.985,378.947,12.611,735770938
1.225,0.119,-0.041,-72.855,361.298,5.832,735774950
1.290,0.099,-0.003,-68.458,339.328,1.374,735778961
1.336,0.076,0.049,-67.466,314.382,-1.511,735782973
1.396,0.097,0.029,-68.427,290.916,-6.870,735786984
1.411,0.113,-0.101,-67.099,263.832,-10.580,735790995
1.364,0.089,0.087,-68.794,254.366,-12.305,735795007
1.341,0.097,0.031,-66.824,240.718,-10.855,735799018
1.317,0.076,0.071,-64.870,222.443,-7.847,735803029
1.293,0.073,0.095,-62.687,201.939,-5.298,735807040
1.270,0.067,0.103,-61.023,181.008,-4.290,735811051
1.234,0.044,0.112,-59.557,162.870,-4.473,735815063
1.228,0.029,0.114,-58.122,147.817,-5.496,735819073
1.227,0.036,0.131,-57.588,133.756,-7.908,735823084
1.208,0.038,0.159,-56.458,121.603,-10.336,735827095
1.166,0.039,0.168,-54.901,110.809,-13.389,735831106
1.100,0.041,0.177,-53.664,100.931,-14.885,735835117
1.058,0.034,0.185,-52.229,91.771,-16.473,735839128
1.015,0.020,0.194,-51.221,83.939,-17.420,735843140
0.992,0.003,0.184,-49.710,75.939,-18.229,735847150
0.987,0.000,0.245,-50.107,69.664,-20.855,735851161
0.988,-0.017,0.230,-49.542,67.649,-21.802,735855172
0.984,-0.029,0.230,-49.344,66.534,-22.626,735859183
0.965,-0.041,0.251,-48.702,64.443,-21.099,735863194
0.956,-0.034,0.260,-47.664,60.214,-19.221,735867205
0.946,-0.051,0.274,-46.794,55.954,-16.794,735871216
0.935,-0.041,0.281,-45.313,53.053,-14.168,735875227
0.950,-0.039,0.274,-44.290,51.481,-12.260,735879238
0.949,-0.041,0.272,-43.267,50.931,-10.565,735883249
0.945,-0.036,0.282,-41.908,51.359,-8.779,735887260
0.954,-0.019,0.293,-40.244,52.061,-7.405,735891271
0.957,-0.018,0.299,-38.595,51.924,-6.107,735895282
0.940,-0.016,0.305,-36.718,51.191,-4.733,735899293
0.946,-0.022,0.317,-34.824,50.168,-3.221,735903304
0.962,-0.035,0.311,-33.130,47.298,-1.863,735907315
0.969,-0.032,0.325,-31.435,44.382,-0.122,735911326
0.984,-0.026,0.304,-29.511,42.031,1.710,735915338
0.980,-0.024,0.312,-27.511,40.107,3.221,735919349
0.980,-0.018,0.332,-25.679,38.214,4.824,735923360
0.976,-0.009,0.326,-23.740,38.733,6.153,735927371
0.973,0.015,0.327,-21.649,38.519,6.550,735931382
0.975,0.012,0.312,-20.275,37.160,6.763,735935394
0.974,0.007,0.312,-18.366,33.481,7.786,735939414
0.950,0.009,0.304,-17.038,31.603,9.939,735943425
0.941,0.006,0.309,-15.252,30.779,12.031,735947436
0.937,0.010,0.320,-12.947,33.344,12.748,735951447
0.938,0.026,0.300,-11.023,36.214,12.031,735955460
0.965,0.034,0.299,-9.511,37.328,11.084,735959471
0.970,0.033,0.309,-8.198,36.168,10.198,735963483
0.964,0.025,0.295,-7.435,34.107,9.817,735967493
0.967,0.014,0.303,-6.885,32.290,9.969,735971504
0.970,-0.002,0.301,-6.229,30.809,10.122,735975515
0.982,0.000,0.301,-5.908,29.756,9.603,735979527
0.975,-0.005,0.292,-5.740,28.641,9.038,735983538
0.974,-0.006,0.298,-5.908,27.221,8.885,735987550
0.979,-0.007,0.294,-6.489,25.344,8.748,735991561
0.977,-0.008,0.295,-6.901,23.344,8.641,735995571
0.976,-0.005,0.290,-7.328,21.908,8.443,735999583
0.976,-0.005,0.293,-7.389,20.656,8.046,736003593
0.981,-0.007,0.285,-7.496,19.573,7.511,736007604
0.983,-0.006,0.291,-7.496,18.260,7.191,736011615
0.985,0.001,0.294,-7.282,16.687,7.008,736015627
0.976,-0.007,0.291,-7.267,15.313,7.038,736019637
0.984,-0.006,0.295,-7.649,13.817,6.824,736023648
0.985,-0.004,0.285,-8.183,12.519,6.687,736027659
0.977,-0.010,0.295,-8.580,11.130,6.382,736031671
0.981,-0.019,0.289,-8.947,9.756,5.924,736035682
0.991,-0.021,0.293,-9.389,8.382,5.053,736039702
1.001,-0.020,0.294,-9.435,6.687,4.366,736043713
1.004,-0.012,0.299,-9.252,4.931,3.679,736047724
1.002,-0.014,0.299,-9.496,3.588,3.008,736051735
0.998,-0.010,0.301,-9.573,2.580,2.260,736055746
0.994,-0.011,0.291,-9.863,1.298,1.328,736059767
0.997,-0.013,0.299,-9.557,-0.107,0.687,736063778
0.997,-0.012,0.298,-9.374,-0.718,-0.092,736067789
0.990,-0.012,0.297,-8.794,-0.962,-0.809,736071800
0.982,-0.011,0.290,-8.504,-0.931,-1.237,736075811
0.984,-0.007,0.307,-8.382,-1.481,-1.863,736079829
0.977,-0.014,0.302,-8.137,-1.359,-2.397,736083840
0.958,-0.020,0.305,-7.649,-0.855,-2.382,736087852
0.960,-0.009,0.309,-6.931,0.351,-2.611,736091863
0.948,-0.013,0.304,-6.443,1.924,-2.412,736095874
0.956,-0.010,0.308,-5.908,3.191,-2.061,736099884
0.955,-0.002,0.302,-5.389,4.122,-1.679,736103895
0.958,0.006,0.303,-4.565,4.458,-1.160,736107906
0.963,-0.002,0.298,-3.756,5.466,-0.641,736111917
0.960,0.005,0.295,-3.130,5.588,0.031,736115928
0.971,0.005,0.301,-2.550,6.031,0.718,736119938
0.967,0.000,0.300,-1.985,5.908,1.267,736123949
0.975,-0.008,0.302,-1.588,5.405,1.466,736127960
0.986,-0.010,0.303,-1.145,5.282,1.771,736131971
0.986,-0.015,0.300,-1.420,4.809,2.092,736135983
0.991,-0.013,0.293,-1.817,4.687,2.229,736140003
0.980,-0.013,0.283,-2.183,4.519,2.366,736144014
0.984,-0.011,0.281,-2.351,4.305,2.336,736148025
0.974,-0.011,0.282,-2.611,3.832,2.443,736152037
0.970,-0.004,0.286,-2.519,3.435,2.473,736156048
0.976,-0.004,0.285,-2.412,2.947,2.534,736160069
0.980,-0.003,0.283,-2.305,2.519,2.733,736164080
0.986,0.004,0.284,-2.214,2.336,2.824,736168092
0.977,-0.002,0.287,-2.183,1.832,3.176,736172103
0.982,-0.001,0.283,-2.183,1.832,3.145,736176114
0.979,0.001,0.280,-2.015,1.405,3.313,736180126
0.976,-0.005,0.292,-1.573,1.527,3.130,736184136
0.959,-0.005,0.277,-1.450,1.679,3.221,736188147
0.966,-0.006,0.281,-1.542,2.458,2.992,736192158
0.948,-0.017,0.280,-1.695,2.779,2.824,736196169
0.955,-0.013,0.272,-2.427,3.679,2.992,736200180
0.968,-0.014,0.266,-2.824,4.244,2.809,736204192
0.969,-0.008,0.269,-2.977,4.595,2.718,736208203
0.969,-0.004,0.269,-3.008,4.931,2.855,736212214
0.970,-0.009,0.271,-3.176,5.206,2.809,736216225
0.964,-0.007,0.269,-3.420,4.931,2.855,736220236
0.973,-0.009,0.275,-3.893,4.565,2.565,736224246
0.968,-0.011,0.273,-4.061,4.443,2.275,736228257
0.961,-0.017,0.272,-4.412,4.534,1.878,736232268
0.963,-0.016,0.268,-4.763,4.550,1.725,736236279
0.966,-0.013,0.272,-4.977,4.611,1.420,736240289
0.975,-0.021,0.273,-5.191,4.565,1.282,736244301
0.976,-0.017,0.278,-5.832,4.122,1.069,736248311
0.984,-0.017,0.273,-6.290,4.000,0.763,736252322
0.983,-0.015,0.269,-6.779,3.420,0.595,736256333
0.979,-0.007,0.278,-7.191,3.527,0.321,736260353
0.983,-0.012,0.270,-7.405,3.084,0.046,736264364
0.981,-0.011,0.280,-7.389,2.733,-0.351,736268375
0.975,-0.020,0.276,-7.435,2.290,-0.779,736272386
0.970,-0.013,0.276,-7.359,1.893,-1.252,736276397
0.972,-0.016,0.277,-7.420,1.893,-1.771,736280417
0.972,-0.019,0.276,-7.542,2.000,-2.305,736284429
0.973,-0.015,0.278,-7.542,2.183,-2.565,736288440
0.973,-0.010,0.279,-7.313,2.458,-3.069,736292452
0.973,-0.010,0.289,-6.763,2.718,-3.160,736296463
0.974,-0.011,0.286,-6.260,2.672,-2.977,736300481
0.973,-0.010,0.276,-5.939,2.702,-2.901,736304491
0.972,-0.002,0.289,-5.496,2.550,-2.351,736308503
0.973,-0.019,0.289,-5.481,2.748,-2.321,736312513
0.974,-0.006,0.289,-5.450,2.733,-1.893,736316524
0.968,-0.009,0.282,-4.901,3.191,-1.405,736320534
0.960,-0.007,0.281,-4.534,3.527,-1.221,736324545
0.961,-0.011,0.287,-4.260,3.817,-0.977,736328556
