acc_x,acc_y,acc_z,gyro_x,gyro_y,gyro_z,time
0.251,-0.194,-1.124,-1.634,-3.771,-2.504,0
0.251,-0.192,-1.119,-1.679,-3.435,-2.763,4050
0.241,-0.195,-1.126,-1.557,-2.901,-2.962,8066
0.240,-0.195,-1.127,-1.481,-2.076,-3.176,12077
0.233,-0.202,-1.113,-1.435,-1.344,-3.252,16089
0.230,-0.200,-1.117,-1.542,-0.382,-3.405,20100
0.229,-0.198,-1.125,-1.405,0.382,-3.374,24111
0.234,-0.194,-1.121,-1.313,0.977,-3.496,28123
0.234,-0.193,-1.124,-1.344,1.603,-3.328,32134
0.240,-0.193,-1.120,-1.420,2.092,-3.115,36146
0.249,-0.195,-1.125,-1.405,2.122,-3.099,40156
0.246,-0.188,-1.128,-1.405,2.046,-2.824,44167
0.246,-0.194,-1.126,-1.038,1.740,-2.580,48178
0.252,-0.191,-1.127,-0.992,1.221,-2.366,52189
0.254,-0.195,-1.122,-1.008,0.595,-1.725,56200
0.253,-0.193,-1.124,-1.023,-0.015,-1.756,60211
0.245,-0.205,-1.129,-0.870,-0.519,-1.618,64222
0.247,-0.206,-1.133,-1.069,-0.870,-1.084,68233
0.245,-0.193,-1.125,-1.374,-0.702,-1.176,72244
0.244,-0.206,-1.125,-1.481,-0.550,-1.038,76255
0.240,-0.196,-1.129,-1.481,-0.153,-1.130,80267
0.237,-0.202,-1.124,-1.450,0.183,-0.962,84278
0.241,-0.203,-1.132,-1.588,0.382,-1.130,88289
0.246,-0.200,-1.124,-1.481,0.656,-1.252,92301
0.249,-0.201,-1.132,-1.603,0.870,-1.374,96312
0.248,-0.199,-1.140,-1.542,0.687,-1.252,100324
0.247,-0.202,-1.131,-1.420,0.931,-1.374,104335
0.249,-0.199,-1.134,-1.298,0.840,-1.679,108346
0.250,-0.201,-1.127,-1.435,0.992,-1.802,112358
0.252,-0.210,-1.126,-1.634,0.641,-2.198,116369
0.244,-0.203,-1.134,-2.046,0.641,-2.290,120381
0.246,-0.208,-1.114,-2.565,0.885,-2.626,124392
0.248,-0.211,-1.123,-3.099,0.718,-2.901,128402
0.247,-0.208,-1.117,-3.588,0.626,-3.130,132414
0.248,-0.208,-1.118,-4.153,0.718,-3.191,136425
0.253,-0.211,-1.109,-4.779,0.534,-3.359,140437
0.250,-0.205,-1.111,-5.115,0.489,-3.405,144448
0.251,-0.200,-1.112,-5.282,0.305,-3.405,148458
0.248,-0.195,-1.109,-5.618,0.321,-3.267,152469
0.246,-0.200,-1.119,-5.740,-0.351,-3.176,156480
0.253,-0.195,-1.105,-5.588,-0.748,-2.962,160491
0.251,-0.186,-1.117,-5.466,-1.115,-2.748,164502
0.250,-0.183,-1.112,-5.115,-1.649,-2.626,168513
0.250,-0.184,-1.112,-4.580,-1.802,-2.076,172524
0.248,-0.183,-1.112,-4.183,-2.122,-2.000,176535
0.246,-0.185,-1.112,-3.695,-2.534,-1.466,180547
0.256,-0.186,-1.124,-3.237,-2.595,-1.298,184558
0.249,-0.183,-1.116,-3.053,-3.053,-1.053,188569
0.255,-0.183,-1.116,-2.580,-3.023,-0.931,192580
0.247,-0.183,-1.120,-2.107,-3.099,-0.870,196592
0.243,-0.193,-1.109,-1.618,-3.115,-0.687,200603
0.241,-0.192,-1.110,-1.420,-3.038,-0.626,204614
0.240,-0.187,-1.124,-1.115,-2.901,-0.733,208626
0.236,-0.189,-1.120,-0.809,-2.397,-0.550,212647
0.240,-0.197,-1.120,-0.580,-1.969,-0.733,216658
0.240,-0.194,-1.129,-0.641,-1.359,-0.763,220669
0.240,-0.200,-1.127,-0.519,-0.794,-0.641,224680
0.239,-0.201,-1.114,-0.641,-0.305,-1.206,228691
0.241,-0.206,-1.126,-1.008,0.275,-1.206,232703
0.243,-0.207,-1.128,-1.221,0.779,-1.206,236714
0.239,-0.206,-1.135,-1.649,1.344,-1.298,240725
0.248,-0.212,-1.138,-2.046,1.679,-1.221,244736
0.255,-0.207,-1.137,-2.565,1.756,-1.374,248747
0.252,-0.207,-1.142,-3.145,1.817,-1.649,252758
0.259,-0.213,-1.139,-3.817,1.511,-1.649,256769
0.257,-0.210,-1.136,-4.412,1.237,-1.817,260780
0.255,-0.201,-1.139,-4.473,0.687,-1.740,264791
0.261,-0.199,-1.141,-4.794,0.275,-1.985,268800
0.262,-0.196,-1.143,-4.687,-0.702,-1.817,272811
0.263,-0.201,-1.141,-4.718,-0.901,-1.939,276823
0.260,-0.195,-1.140,-4.809,-1.649,-2.015,280833
0.254,-0.201,-1.132,-4.855,-2.336,-2.046,284844
0.257,-0.193,-1.125,-4.672,-2.763,-2.000,288858
0.250,-0.198,-1.132,-4.809,-3.099,-1.832,292868
0.249,-0.191,-1.123,-4.458,-3.267,-1.634,296879
0.241,-0.192,-1.130,-4.336,-3.008,-1.450,300891
0.244,-0.189,-1.124,-4.122,-2.687,-1.374,304902
0.242,-0.189,-1.125,-3.924,-2.153,-1.511,308913
0.242,-0.189,-1.128,-3.618,-1.695,-1.450,312924
0.236,-0.188,-1.112,-3.466,-1.115,-1.405,316935
0.230,-0.182,-1.113,-3.069,-0.641,-1.374,320947
0.230,-0.178,-1.116,-2.504,0.092,-1.481,324957
0.224,-0.178,-1.120,-2.260,0.855,-1.481,328968
0.230,-0.185,-1.117,-2.015,1.405,-1.435,332989
0.233,-0.184,-1.119,-1.985,1.969,-1.603,337001
0.238,-0.191,-1.124,-1.985,2.015,-1.756,341011
0.241,-0.199,-1.133,-2.397,2.214,-1.847,345022
0.251,-0.198,-1.122,-2.947,2.061,-1.817,349033
0.254,-0.207,-1.133,-3.573,1.649,-1.939,353054
0.256,-0.202,-1.128,-4.214,0.992,-1.725,357065
0.256,-0.195,-1.131,-4.550,0.061,-1.588,361076
0.261,-0.198,-1.129,-5.206,-0.763,-1.756,365087
0.262,-0.192,-1.130,-5.450,-1.435,-2.046,369098
0.254,-0.193,-1.126,-5.542,-2.183,-2.046,373108
0.247,-0.188,-1.119,-5.603,-2.580,-2.076,377119
0.245,-0.188,-1.118,-5.298,-3.038,-2.076,381130
0.246,-0.185,-1.116,-4.763,-2.718,-2.229,385141
0.237,-0.183,-1.112,-4.504,-2.565,-2.107,389152
0.236,-0.177,-1.114,-4.031,-2.061,-1.985,393163
0.231,-0.178,-1.124,-3.634,-1.557,-1.924,397173
0.228,-0.174,-1.121,-3.053,-0.824,-1.695,401184
0.229,-0.180,-1.111,-2.504,-0.275,-1.557,405195
0.236,-0.181,-1.107,-2.260,0.214,-1.450,409206
0.231,-0.179,-1.106,-1.649,0.611,-1.115,413227
0.232,-0.189,-1.109,-1.435,0.977,-0.947,417238
0.228,-0.182,-1.113,-1.160,1.328,-0.626,421249
0.238,-0.183,-1.109,-1.206,1.725,-0.580,425260
0.235,-0.188,-1.111,-1.328,1.847,-0.214,429271
0.243,-0.191,-1.105,-1.405,2.015,-0.107,433292
0.240,-0.197,-1.104,-1.679,1.847,0.046,437303
0.240,-0.200,-1.112,-2.198,1.496,0.076,441315
0.252,-0.206,-1.106,-2.595,0.901,0.137,445326
0.255,-0.206,-1.110,-3.267,0.122,-0.031,449337
0.260,-0.211,-1.111,-3.695,-0.458,-0.031,453349
0.262,-0.213,-1.117,-4.534,-1.527,-0.076,457360
0.252,-0.211,-1.117,-5.206,-2.168,-0.336,461372
0.252,-0.208,-1.120,-5.603,-2.718,-0.366,465382
0.251,-0.198,-1.111,-5.802,-3.130,-0.779,469393
0.254,-0.203,-1.120,-5.847,-3.588,-1.023,473404
0.253,-0.188,-1.112,-5.511,-3.863,-1.130,477415
0.249,-0.192,-1.119,-5.069,-3.878,-0.779,481426
0.245,-0.195,-1.121,-4.534,-3.832,-0.855,485437
0.242,-0.190,-1.125,-3.939,-3.679,-1.053,489449
0.238,-0.192,-1.124,-3.176,-3.282,-1.099,493460
0.228,-0.185,-1.121,-2.366,-2.992,-1.084,497471
0.224,-0.192,-1.115,-1.649,-2.336,-0.748,501483
0.230,-0.184,-1.117,-1.115,-1.802,-0.840,505493
0.226,-0.187,-1.115,-0.427,-0.977,-0.702,509504
0.229,-0.191,-1.113,-0.046,-0.015,-0.718,513514
0.231,-0.193,-1.128,0.290,0.855,-0.779,517525
0.229,-0.199,-1.123,0.458,1.740,-0.779,521536
0.233,-0.204,-1.117,0.351,2.092,-0.611,525548
0.240,-0.205,-1.128,0.305,2.763,-0.397,529559
0.246,-0.212,-1.126,-0.137,2.931,-0.550,533569
0.246,-0.215,-1.134,-0.611,2.748,-0.366,537581
0.260,-0.216,-1.128,-1.298,2.336,-0.443,541592
0.260,-0.215,-1.128,-1.939,1.649,-0.534,545604
0.262,-0.215,-1.141,-2.809,0.809,-0.885,549615
0.261,-0.219,-1.138,-3.496,0.000,-0.702,553634
0.263,-0.214,-1.144,-4.321,-0.947,-0.992,557646
0.261,-0.213,-1.139,-4.992,-1.893,-0.947,561657
0.261,-0.204,-1.135,-5.603,-2.687,-1.221,565668
0.258,-0.203,-1.135,-5.847,-2.962,-1.756,569679
0.254,-0.197,-1.132,-5.924,-3.282,-2.137,573699
0.248,-0.198,-1.132,-5.954,-3.389,-2.336,577710
0.241,-0.191,-1.136,-6.000,-3.634,-2.473,581721
0.249,-0.199,-1.127,-5.863,-3.817,-2.656,585732
0.238,-0.186,-1.132,-5.756,-3.496,-2.733,589743
0.228,-0.187,-1.129,-5.374,-3.206,-2.901,593753
0.227,-0.185,-1.121,-4.901,-2.626,-2.382,597764
0.226,-0.179,-1.130,-4.382,-2.382,-2.412,601775
0.224,-0.184,-1.119,-3.740,-1.695,-2.183,605787
0.218,-0.178,-1.124,-3.267,-0.977,-2.107,609798
0.214,-0.180,-1.122,-2.763,-0.351,-1.893,613808
0.201,-0.179,-1.124,-2.076,0.412,-1.664,617819
0.205,-0.172,-1.125,-1.710,1.542,-1.511,621830
0.203,-0.176,-1.124,-1.588,2.580,-1.252,625842
0.200,-0.182,-1.122,-1.435,3.588,-1.221,629853
0.206,-0.183,-1.131,-1.588,4.519,-0.901,633873
0.210,-0.182,-1.134,-1.954,5.542,-0.992,637885
0.205,-0.185,-1.128,-2.351,6.718,-1.053,641897
0.200,-0.190,-1.131,-2.824,7.710,-1.099,645908
0.199,-0.190,-1.134,-3.389,8.779,-1.099,649920
0.204,-0.197,-1.124,-4.183,10.031,-1.206,653931
0.202,-0.198,-1.132,-4.641,10.962,-1.008,657942
0.208,-0.195,-1.136,-5.756,11.924,-0.809,661953
0.211,-0.200,-1.134,-6.504,12.504,-0.824,665964
0.217,-0.195,-1.131,-7.313,13.053,-0.565,669975
0.220,-0.195,-1.130,-8.046,13.573,-0.748,673986
0.213,-0.190,-1.116,-8.626,14.290,-1.038,677998
0.196,-0.184,-1.120,-9.282,15.588,-1.435,682009
0.176,-0.183,-1.120,-10.015,17.603,-1.924,686021
0.158,-0.170,-1.108,-10.626,19.405,-2.794,690032
0.133,-0.169,-1.110,-10.870,23.496,-3.634,694043
0.112,-0.162,-1.104,-11.450,28.534,-4.443,698055
0.105,-0.156,-1.094,-12.198,37.634,-5.771,702065
0.089,-0.151,-1.096,-12.275,45.389,-7.282,706076
0.050,-0.130,-1.085,-11.466,55.282,-9.008,710087
0.012,-0.104,-1.076,-10.351,66.901,-11.130,714098
-0.031,-0.074,-1.059,-8.290,79.908,-13.298,718104
-0.099,-0.046,-1.027,-3.893,94.901,-16.092,722115
-0.185,-0.015,-1.036,1.481,111.389,-18.885,726126
-0.266,0.017,-1.012,8.885,129.069,-21.267,730137
-0.352,0.031,-0.949,14.183,162.107,-25.802,734148
-0.401,0.035,-0.983,17.252,185.664,-30.321,738154
-0.420,0.075,-0.809,26.870,252.885,-41.511,742165
-0.439,0.039,-0.830,34.733,304.427,-47.847,746176
-0.429,0.029,-0.751,42.244,358.718,-53.878,750187
-0.408,-0.011,-0.725,44.779,404.366,-58.962,754198
-0.372,-0.056,-0.679,45.634,446.031,-63.847,758210
-0.322,-0.088,-0.619,45.344,486.107,-68.198,762221
-0.261,-0.115,-0.560,44.870,500.260,-70.672,766233
-0.184,-0.137,-0.522,44.061,500.260,-70.626,770244
-0.052,-0.166,-0.464,42.244,500.260,-69.099,774255
0.081,-0.181,-0.388,41.145,500.260,-66.702,778267
0.214,-0.204,-0.326,40.366,500.260,-63.542,782278
0.331,-0.219,-0.267,39.344,500.260,-58.840,786290
0.442,-0.225,-0.245,38.718,500.260,-52.947,790300
0.547,-0.243,-0.219,38.137,500.260,-46.870,794311
0.645,-0.258,-0.172,37.084,500.260,-41.038,798322
0.762,-0.287,-0.111,33.924,500.260,-35.954,802333
0.852,-0.313,-0.059,31.313,500.260,-30.519,806344
0.901,-0.314,-0.031,30.763,500.260,-25.389,810355
0.935,-0.326,-0.003,29.160,500.260,-18.412,814366
0.953,-0.314,0.071,27.267,500.260,-10.748,818376
0.975,-0.292,0.149,26.840,500.260,-4.290,822387
0.993,-0.268,0.234,25.603,500.260,-0.885,826398
1.012,-0.256,0.327,25.725,500.260,1.237,830409
1.023,-0.258,0.403,26.153,500.260,2.366,834420
1.061,-0.260,0.456,26.092,500.260,2.550,838431
1.136,-0.260,0.510,26.076,500.260,1.954,842442
1.213,-0.260,0.554,26.366,500.260,0.412,846452
1.276,-0.260,0.577,25.511,500.260,-1.725,850463
1.326,-0.302,0.617,21.237,500.260,-4.458,854475
1.391,-0.322,0.624,15.130,500.260,-7.450,858486
1.466,-0.366,0.633,7.206,500.260,-11.237,862497
1.512,-0.402,0.637,-1.405,500.260,-16.107,866508
1.482,-0.407,0.639,-8.641,500.260,-17.847,870519
1.457,-0.392,0.638,-17.237,500.260,-18.458,874530
1.430,-0.391,0.623,-26.458,500.260,-14.122,878542
1.425,-0.302,0.618,-32.885,500.260,-13.756,882553
1.430,-0.275,0.607,-40.855,500.260,-16.260,886564
1.447,-0.250,0.592,-48.137,500.260,-19.084,890575
1.454,-0.243,0.563,-53.206,500.260,-21.542,894586
1.437,-0.252,0.601,-58.336,500.260,-22.336,898598
1.408,-0.180,0.555,-59.695,500.260,-20.565,902609
1.382,-0.155,0.587,-62.702,500.260,-20.595,906620
1.354,-0.112,0.657,-65.954,500.260,-30.092,910631
1.400,-0.141,0.578,-68.137,491.756,-30.977,914642
1.460,-0.142,0.567,-66.427,443.481,-27.420,918654
1.467,-0.170,0.558,-67.679,395.603,-25.282,922675
1.464,-0.156,0.561,-67.847,348.687,-24.702,926686
1.447,-0.140,0.553,-68.153,301.603,-23.588,930697
1.445,-0.117,0.457,-65.710,260.290,-22.229,934708
1.406,-0.125,0.550,-66.550,216.794,-22.779,938719
1.390,-0.153,0.533,-65.756,177.328,-23.527,942732
1.383,-0.170,0.539,-65.145,135.588,-24.504,946743
1.375,-0.191,0.551,-65.084,101.435,-25.160,950754
1.385,-0.217,0.577,-65.450,73.847,-26.458,954765
1.385,-0.219,0.579,-65.176,38.931,-27.954,958777
1.372,-0.229,0.601,-63.924,4.947,-29.313,962788
1.328,-0.204,0.630,-60.840,-27.557,-30.076,966800
1.282,-0.179,0.651,-55.527,-60.962,-31.435,970811
1.258,-0.154,0.659,-49.832,-97.985,-34.183,974822
1.267,-0.145,0.676,-44.214,-132.672,-38.168,978833
1.266,-0.157,0.670,-39.038,-169.893,-41.710,982843
1.294,-0.186,0.665,-35.542,-205.618,-44.779,986854
1.359,-0.233,0.716,-34.580,-227.176,-48.534,990865
1.424,-0.308,0.701,-34.534,-259.908,-50.901,994876
1.473,-0.355,0.729,-35.435,-294.000,-52.046,998888
1.523,-0.405,0.760,-36.840,-327.084,-51.679,1002898
1.567,-0.424,0.782,-38.443,-362.031,-49.817,1006909
1.595,-0.446,0.807,-39.740,-398.824,-46.763,1010920
1.615,-0.436,0.826,-41.634,-440.092,-42.260,1014931
1.634,-0.428,0.853,-43.389,-480.809,-36.718,1018942
1.639,-0.407,0.871,-44.916,-500.275,-31.511,1022963
1.638,-0.393,0.905,-45.634,-500.275,-25.802,1026974
1.621,-0.366,0.938,-45.374,-500.275,-20.748,1030985
1.579,-0.314,0.958,-42.687,-500.275,-15.985,1034997
1.531,-0.255,0.966,-38.473,-500.275,-12.626,1039008
1.484,-0.197,0.976,-34.000,-500.275,-11.176,1043029
1.448,-0.157,0.948,-29.725,-500.275,-11.084,1047039
1.433,-0.115,0.928,-24.366,-500.275,-12.366,1051050
1.435,-0.108,0.909,-19.206,-500.275,-15.008,1055061
1.436,-0.098,0.877,-15.206,-500.275,-19.023,1059072
1.438,-0.107,0.821,-11.130,-500.275,-24.046,1063083
1.410,-0.137,0.790,-9.679,-500.275,-29.832,1067094
1.358,-0.159,0.739,-9.221,-500.275,-36.962,1071105
1.300,-0.188,0.684,-8.107,-500.275,-44.580,1075116
1.248,-0.209,0.634,-8.000,-500.275,-52.061,1079127
1.198,-0.237,0.593,-9.298,-500.275,-59.359,1083137
1.134,-0.252,0.548,-11.420,-500.275,-66.244,1087148
1.081,-0.287,0.498,-14.824,-500.275,-73.053,1091159
1.017,-0.320,0.449,-19.206,-500.275,-79.023,1095170
0.941,-0.335,0.389,-23.481,-500.275,-84.214,1099181
0.875,-0.359,0.282,-29.115,-500.275,-87.099,1103194
0.840,-0.381,0.263,-38.092,-500.275,-90.107,1107205
0.786,-0.369,0.173,-47.985,-500.275,-93.298,1111216
0.735,-0.369,0.159,-59.603,-500.275,-96.840,1115227
0.665,-0.288,0.115,-61.084,-500.275,-100.947,1119238
0.604,-0.245,0.060,-60.885,-500.275,-103.878,1123258
0.503,-0.181,0.050,-60.290,-500.275,-104.702,1127270
0.383,-0.135,-0.014,-58.580,-500.275,-103.496,1131281
0.256,-0.075,-0.069,-54.947,-500.275,-102.824,1135292
0.141,-0.007,-0.135,-46.931,-500.275,-99.878,1139303
-0.005,0.035,-0.199,-39.710,-500.275,-97.084,1143323
-0.134,0.075,-0.208,-37.267,-500.275,-100.565,1147334
-0.246,0.131,-0.263,-26.885,-500.275,-105.099,1151345
-0.371,0.148,-0.290,-8.824,-500.275,-107.130,1155356
-0.511,0.117,-0.407,4.183,-498.870,-103.527,1159367
-0.626,0.117,-0.468,18.550,-441.130,-99.588,1163381
-0.736,0.090,-0.587,31.221,-384.244,-92.672,1167392
-0.783,0.064,-0.672,41.710,-328.092,-86.260,1171403
-0.787,0.017,-0.749,50.244,-271.344,-77.282,1175414
-0.737,-0.019,-0.844,57.267,-218.992,-66.779,1179425
-0.649,-0.054,-0.909,63.191,-170.290,-55.969,1183436
-0.541,-0.081,-0.954,67.740,-125.679,-44.504,1187447
-0.413,-0.105,-0.978,70.916,-87.389,-33.389,1191458
-0.292,-0.129,-1.010,73.435,-57.176,-23.206,1195469
-0.189,-0.143,-1.021,74.931,-31.740,-13.664,1199480
-0.101,-0.152,-1.044,75.557,-11.878,-4.779,1203491
-0.019,-0.165,-1.034,75.908,7.634,1.038,1207502
0.057,-0.135,-1.037,79.237,34.595,-0.626,1211514
0.300,-0.266,-1.053,78.534,46.519,9.618,1215524
0.204,-0.175,-1.150,75.389,33.359,11.237,1219535
0.260,-0.181,-1.193,71.466,7.969,15.634,1223545
0.275,-0.153,-1.143,68.031,-1.374,16.076,1227557
0.290,-0.145,-1.152,65.053,-3.191,13.847,1231568
0.285,-0.145,-1.178,62.580,-9.252,10.061,1235579
0.298,-0.150,-1.197,59.802,-22.794,6.672,1239590
0.306,-0.169,-1.195,56.672,-31.847,2.214,1243610
0.308,-0.184,-1.205,53.328,-38.840,-4.947,1247620
0.429,-0.262,-1.167,49.130,-37.069,-7.069,1251632
0.312,-0.232,-1.207,44.641,-41.878,-10.702,1255643
0.316,-0.245,-1.204,40.595,-46.992,-13.313,1259654
0.309,-0.259,-1.213,35.969,-47.710,-15.695,1263675
0.295,-0.260,-1.219,31.359,-49.405,-17.328,1267687
0.277,-0.267,-1.222,26.947,-50.427,-18.458,1271698
0.258,-0.274,-1.228,22.947,-53.756,-18.977,1275709
0.223,-0.269,-1.220,20.168,-54.092,-19.237,1279720
0.209,-0.260,-1.225,17.405,-53.542,-18.672,1283731
0.188,-0.251,-1.228,15.237,-52.855,-17.695,1287742
0.170,-0.246,-1.222,13.420,-49.145,-16.366,1291754
0.154,-0.240,-1.216,12.076,-42.931,-15.160,1295765
0.143,-0.237,-1.207,10.992,-36.947,-13.511,1299776
0.135,-0.244,-1.202,9.908,-30.229,-11.939,1303786
0.134,-0.248,-1.212,8.855,-23.863,-10.061,1307797
0.135,-0.240,-1.217,7.954,-17.099,-7.954,1311808
0.131,-0.239,-1.219,7.221,-10.733,-5.863,1315819
0.139,-0.230,-1.210,6.626,-4.718,-4.031,1319830
0.143,-0.219,-1.216,5.908,0.779,-2.427,1323850
0.155,-0.219,-1.206,5.160,5.618,-1.206,1327861
0.175,-0.212,-1.190,4.672,9.038,0.031,1331872
0.199,-0.216,-1.184,4.198,11.618,0.718,1335883
0.226,-0.214,-1.187,3.542,13.710,1.130,1339894
0.230,-0.226,-1.185,2.443,15.481,2.168,1343914
0.262,-0.224,-1.186,1.160,16.046,2.366,1347924
0.280,-0.231,-1.186,-1.038,13.802,1.282,1351935
0.301,-0.245,-1.187,-3.542,11.908,0.672,1355946
0.307,-0.251,-1.180,-5.435,9.450,0.412,1359958
0.307,-0.249,-1.184,-7.374,6.137,1.038,1363969
0.299,-0.241,-1.166,-9.450,3.359,1.908,1367981
0.295,-0.233,-1.170,-11.145,1.145,1.878,1371991
0.277,-0.225,-1.155,-12.809,-0.702,1.298,1376002
0.269,-0.211,-1.156,-14.122,-2.168,0.046,1380013
0.249,-0.210,-1.133,-14.977,-2.473,-0.977,1384024
0.233,-0.198,-1.138,-15.313,-1.695,-2.443,1388035
0.209,-0.191,-1.126,-15.160,-0.046,-3.237,1392046
0.194,-0.188,-1.125,-14.962,1.969,-3.878,1396057
0.187,-0.179,-1.122,-14.550,4.504,-3.985,1400069
0.176,-0.186,-1.122,-14.214,7.221,-3.802,1404080
0.190,-0.194,-1.114,-13.588,9.954,-4.015,1408091
0.194,-0.183,-1.107,-12.962,12.748,-3.817,1412102
0.194,-0.177,-1.108,-12.260,15.008,-3.832,1416113
0.214,-0.180,-1.114,-12.031,16.748,-3.420,1420124
0.226,-0.180,-1.115,-11.481,17.695,-3.084,1424135
0.240,-0.187,-1.108,-11.282,17.481,-2.824,1428148
0.269,-0.189,-1.111,-11.069,16.473,-2.855,1432159
0.283,-0.190,-1.115,-10.947,15.023,-2.809,1436170
0.300,-0.187,-1.117,-10.794,12.443,-2.672,1440181
0.296,-0.194,-1.109,-10.519,9.053,-2.504,1444192
0.292,-0.185,-1.116,-10.473,5.359,-2.534,1448203
0.292,-0.186,-1.118,-10.672,2.504,-2.702,1452215
0.284,-0.183,-1.105,-10.763,-0.153,-2.947,1456225
0.270,-0.185,-1.111,-10.779,-2.153,-3.496,1460236
0.259,-0.182,-1.118,-11.191,-3.649,-4.153,1464247
0.243,-0.190,-1.121,-11.267,-4.458,-4.550,1468259
0.222,-0.190,-1.109,-11.527,-4.427,-4.748,1472270
0.218,-0.190,-1.106,-11.511,-3.542,-5.206,1476281
0.211,-0.180,-1.106,-11.573,-2.198,-5.740,1480292
0.190,-0.172,-1.104,-11.389,-0.168,-5.969,1484303
0.193,-0.181,-1.112,-10.977,2.061,-6.382,1488315
0.193,-0.179,-1.115,-10.809,4.718,-6.733,1492326
0.194,-0.178,-1.096,-10.107,6.931,-6.962,1496337
0.198,-0.175,-1.104,-9.756,8.626,-7.206,1500348
0.216,-0.183,-1.105,-8.962,9.710,-7.176,1504359
0.228,-0.173,-1.103,-8.153,10.046,-7.344,1508366
0.237,-0.166,-1.103,-7.573,9.924,-7.084,1512377
0.231,-0.165,-1.106,-6.824,9.450,-6.992,1516388
0.234,-0.163,-1.105,-5.954,8.519,-6.855,1520400
0.241,-0.155,-1.108,-4.916,7.695,-6.855,1524411
0.237,-0.156,-1.101,-4.076,6.733,-7.023,1528421
0.231,-0.156,-1.098,-3.206,6.000,-7.069,1532432
0.229,-0.163,-1.104,-2.382,5.405,-7.053,1536443
0.228,-0.158,-1.109,-1.252,5.053,-7.084,1540454
0.218,-0.155,-1.112,-0.672,4.595,-6.595,1544465
0.215,-0.159,-1.110,0.137,4.534,-6.183,1548476
0.217,-0.164,-1.110,0.275,4.321,-5.679,1552487
0.215,-0.175,-1.103,0.351,3.649,-5.282,1556498
0.219,-0.175,-1.110,0.092,3.191,-4.656,1560509
0.229,-0.186,-1.115,-0.244,2.916,-4.366,1564520
0.230,-0.192,-1.116,-0.504,2.443,-3.679,1568531
0.224,-0.188,-1.112,-1.038,2.229,-2.931,1572542
0.223,-0.188,-1.111,-1.053,2.137,-2.412,1576553
0.216,-0.188,-1.118,-0.779,2.122,-1.939,1580564
0.224,-0.188,-1.124,-0.504,2.046,-1.573,1584575
0.237,-0.180,-1.121,-0.183,1.649,-1.221,1588586
0.246,-0.186,-1.115,0.229,1.038,-0.855,1592597
0.254,-0.185,-1.126,0.290,0.198,-0.809,1596608
0.259,-0.188,-1.121,0.137,-0.824,-0.947,1600620
0.250,-0.191,-1.117,0.031,-2.000,-1.084,1604631
0.242,-0.192,-1.117,-0.183,-3.008,-1.618,1608642
0.247,-0.194,-1.126,-0.458,-3.450,-2.046,1612663
0.245,-0.189,-1.123,-0.794,-3.328,-2.702,1616674
0.233,-0.181,-1.131,-0.809,-2.947,-3.084,1620685
0.225,-0.179,-1.124,-0.550,-2.336,-3.298,1624696
0.230,-0.189,-1.121,0.489,-1.756,-3.863,1628709
0.216,-0.194,-1.124,0.122,-1.328,-4.351,1632720
0.225,-0.184,-1.125,-0.046,-0.885,-4.260,1636731
0.240,-0.194,-1.128,-0.137,-1.344,-3.756,1640742
0.247,-0.196,-1.118,-0.290,-1.481,-3.557,1644753
0.246,-0.196,-1.130,-0.687,-2.046,-3.374,1648764
0.245,-0.199,-1.129,-1.206,-2.611,-2.916,1652776
0.243,-0.213,-1.128,-1.802,-3.176,-2.550,1656786
0.237,-0.208,-1.139,-2.656,-3.603,-2.000,1660797
0.238,-0.208,-1.131,-3.359,-3.649,-2.061,1664808
0.234,-0.201,-1.138,-3.832,-3.176,-2.275,1668820
0.232,-0.205,-1.137,-4.336,-2.153,-2.214,1672831
0.221,-0.186,-1.132,-4.824,-1.527,-2.168,1676842
0.222,-0.180,-1.132,-4.656,-0.779,-2.305,1680853
0.224,-0.180,-1.142,-4.611,-0.321,-2.733,1684864
0.226,-0.176,-1.139,-4.366,0.168,-2.702,1688875
0.229,-0.174,-1.137,-4.061,0.595,-3.053,1692885
0.230,-0.174,-1.134,-3.557,0.748,-2.992,1696896
0.225,-0.178,-1.135,-3.206,0.794,-2.977,1700907
0.218,-0.170,-1.133,-2.626,1.374,-2.687,1704918
0.220,-0.167,-1.124,-2.321,1.527,-2.443,1708930
0.216,-0.171,-1.122,-1.893,2.244,-2.046,1712950
0.219,-0.169,-1.131,-1.740,2.748,-1.557,1716962
0.220,-0.172,-1.121,-1.527,3.527,-1.206,1720972
0.216,-0.183,-1.118,-1.389,3.832,-0.977,1724983
0.228,-0.178,-1.131,-1.618,4.183,-0.748,1728995
0.233,-0.183,-1.132,-1.511,4.092,-0.504,1733015
0.243,-0.178,-1.126,-1.618,3.954,-0.550,1737026
0.239,-0.183,-1.131,-1.725,3.267,-0.443,1741037
0.241,-0.180,-1.123,-1.771,2.626,-0.519,1745048
0.247,-0.180,-1.129,-2.229,1.847,-0.366,1749059
0.244,-0.186,-1.133,-2.473,1.145,-0.702,1753077
0.242,-0.183,-1.127,-2.611,0.427,-0.855,1757088
0.242,-0.193,-1.132,-2.962,0.458,-0.870,1761100
0.238,-0.188,-1.138,-3.389,0.031,-0.824,1765110
0.239,-0.188,-1.142,-3.847,0.275,-0.840,1769121
0.234,-0.188,-1.139,-4.397,0.412,-0.947,1773131
0.234,-0.191,-1.135,-4.840,0.992,-1.176,1777142
0.236,-0.185,-1.138,-5.160,1.450,-1.160,1781153
0.235,-0.181,-1.137,-5.313,1.817,-1.298,1785164
0.231,-0.175,-1.127,-5.466,2.260,-1.496,1789175
0.228,-0.174,-1.129,-5.328,2.702,-1.237,1793186
0.231,-0.164,-1.144,-5.053,2.779,-1.176,1797198
0.238,-0.163,-1.130,-4.458,2.534,-1.038,1801208
0.256,-0.158,-1.126,-3.649,2.183,-0.870,1805219
0.253,-0.163,-1.123,-2.809,1.786,-0.718,1809230
0.259,-0.161,-1.135,-2.000,1.099,-0.382,1813251
0.254,-0.167,-1.131,-1.863,0.382,-0.015,1817262
0.259,-0.175,-1.118,-1.786,-0.672,0.244,1821273
0.256,-0.171,-1.133,-1.802,-1.634,0.382,1825285
0.253,-0.182,-1.122,-1.908,-2.336,0.702,1829296
0.253,-0.177,-1.123,-1.832,-3.160,0.885,1833317
0.245,-0.173,-1.129,-1.908,-3.435,0.916,1837328
0.243,-0.173,-1.135,-2.000,-3.374,0.947,1841340
0.238,-0.173,-1.124,-2.137,-3.466,0.992,1845351
0.229,-0.173,-1.110,-1.893,-3.145,0.931,1849362
0.229,-0.163,-1.123,-1.847,-2.641,0.916,1853374
0.226,-0.167,-1.127,-1.588,-1.832,1.069,1857385
0.217,-0.162,-1.130,-1.328,-0.916,0.779,1861396
0.218,-0.165,-1.117,-1.069,0.244,0.824,1865407
0.208,-0.168,-1.120,-0.931,1.542,1.008,1869418
0.213,-0.171,-1.134,-0.870,3.008,0.947,1873429
0.210,-0.168,-1.121,-0.824,4.229,1.176,1877441
0.223,-0.179,-1.137,-0.931,5.191,1.588,1881451
0.225,-0.182,-1.133,-1.282,6.031,1.634,1885462
0.234,-0.188,-1.135,-1.237,6.489,2.015,1889473
0.241,-0.179,-1.132,-1.099,6.550,2.321,1893484
0.247,-0.179,-1.134,-1.206,6.550,2.534,1897495
0.256,-0.183,-1.140,-1.313,6.061,2.611,1901506
0.256,-0.182,-1.134,-1.282,5.176,2.779,1905517
0.258,-0.179,-1.135,-1.237,4.183,2.855,1909528
0.271,-0.182,-1.140,-1.160,3.145,2.962,1913538
0.270,-0.181,-1.132,-1.282,1.786,2.947,1917549
0.273,-0.186,-1.135,-1.344,0.626,2.763,1921560
0.269,-0.186,-1.124,-1.756,-0.397,2.611,1925571
0.270,-0.185,-1.133,-2.183,-1.679,2.550,1929582
0.263,-0.193,-1.134,-2.504,-2.366,2.214,1933602
0.251,-0.190,-1.124,-2.885,-2.763,2.046,1937614
0.251,-0.195,-1.131,-3.237,-3.130,1.985,1941625
0.247,-0.187,-1.130,-3.817,-2.733,1.573,1945636
0.248,-0.188,-1.133,-4.153,-2.321,1.160,1949647
0.244,-0.188,-1.124,-4.550,-1.450,0.763,1953667
0.234,-0.192,-1.124,-5.008,-0.382,0.168,1957678
0.235,-0.189,-1.121,-5.053,0.397,-0.275,1961690
0.231,-0.186,-1.135,-5.176,1.481,-0.794,1965700
0.234,-0.182,-1.127,-5.313,2.473,-1.145,1969711
0.227,-0.183,-1.127,-5.420,3.481,-1.878,1973729
0.227,-0.182,-1.122,-5.221,4.595,-2.198,1977740
0.226,-0.177,-1.125,-5.008,5.573,-2.366,1981751
0.235,-0.183,-1.130,-4.733,6.214,-2.412,1985763
0.244,-0.184,-1.123,-4.702,6.427,-2.473,1989774
0.250,-0.189,-1.132,-4.550,6.733,-2.427,1993786
0.247,-0.189,-1.138,-4.504,6.855,-2.031,1997796
0.243,-0.183,-1.126,-4.275,6.550,-1.878,2001808
