acc_x,acc_y,acc_z,gyro_x,gyro_y,gyro_z,time
0.344,-0.139,-1.078,-2.061,-0.382,-0.382,0
0.346,-0.138,-1.082,-1.695,-0.840,-0.260,4047
0.349,-0.140,-1.075,-1.389,-1.160,-0.580,8060
0.353,-0.141,-1.082,-1.160,-0.977,-0.992,12072
0.348,-0.148,-1.079,-1.084,-1.038,-1.191,16082
0.348,-0.149,-1.088,-1.008,-0.794,-1.099,20093
0.346,-0.150,-1.087,-0.870,-0.626,-1.603,24104
0.343,-0.151,-1.085,-0.779,-0.672,-1.634,28115
0.346,-0.155,-1.074,-0.901,-0.794,-1.634,32126
0.352,-0.148,-1.086,-1.038,-0.565,-2.076,36137
0.347,-0.145,-1.090,-1.160,-0.382,-2.427,40148
0.344,-0.147,-1.086,-1.053,-0.153,-2.504,44159
0.341,-0.155,-1.084,-1.038,-0.183,-2.550,48167
0.347,-0.149,-1.072,-1.328,-0.168,-2.763,52178
0.344,-0.150,-1.082,-1.771,-0.351,-2.870,56189
0.346,-0.145,-1.085,-2.076,-0.260,-3.130,60200
0.346,-0.151,-1.087,-2.656,-0.763,-3.435,64211
0.349,-0.149,-1.085,-3.160,-0.947,-3.435,68223
0.348,-0.151,-1.084,-3.588,-0.840,-3.618,72234
0.341,-0.146,-1.083,-3.679,-1.237,-3.420,76246
0.342,-0.141,-1.085,-4.046,-1.221,-3.313,80257
0.327,-0.145,-1.070,-4.107,-1.069,-2.992,84268
0.338,-0.138,-1.076,-4.092,-0.840,-2.931,88280
0.330,-0.132,-1.077,-3.847,-0.427,-2.824,92291
0.328,-0.126,-1.076,-3.588,-0.137,-2.580,96303
0.319,-0.122,-1.083,-3.023,0.244,-2.443,100314
0.332,-0.117,-1.074,-2.595,0.443,-2.214,104325
0.328,-0.119,-1.073,-2.000,0.687,-2.076,108337
0.332,-0.116,-1.094,-1.573,0.992,-2.046,112347
0.326,-0.115,-1.090,-0.779,1.221,-1.908,116358
0.333,-0.114,-1.097,-0.198,1.695,-1.847,120369
0.331,-0.117,-1.105,0.748,1.985,-1.863,124380
0.330,-0.115,-1.115,1.511,2.397,-1.832,128391
0.342,-0.126,-1.110,2.015,3.069,-1.954,132401
0.327,-0.119,-1.117,2.443,3.863,-2.092,136412
0.337,-0.125,-1.128,2.992,4.824,-2.656,140423
0.336,-0.128,-1.135,3.634,6.229,-2.824,144434
0.337,-0.134,-1.139,4.092,7.313,-3.145,148445
0.346,-0.140,-1.142,4.473,8.977,-3.374,152455
0.347,-0.149,-1.151,4.321,10.702,-3.802,156466
0.353,-0.148,-1.141,4.366,12.626,-3.847,160478
0.352,-0.160,-1.145,3.786,14.122,-4.137,164489
0.354,-0.172,-1.166,2.443,15.038,-4.244,168499
0.372,-0.181,-1.168,0.580,15.267,-4.473,172511
0.385,-0.198,-1.168,-1.221,15.237,-4.580,176521
0.392,-0.202,-1.153,-3.282,14.947,-4.870,180532
0.403,-0.204,-1.157,-5.221,14.840,-4.855,184543
0.403,-0.203,-1.157,-7.145,14.885,-5.176,188554
0.391,-0.188,-1.158,-9.069,14.901,-5.344,192565
0.382,-0.180,-1.161,-10.824,15.252,-5.450,196576
0.369,-0.174,-1.148,-12.534,15.771,-6.046,200587
0.360,-0.177,-1.143,-13.817,17.023,-6.779,204598
0.354,-0.177,-1.147,-15.435,18.504,-7.924,208610
0.343,-0.181,-1.143,-17.679,21.069,-9.496,212621
0.329,-0.187,-1.148,-20.763,24.687,-11.771,216633
0.311,-0.194,-1.143,-24.412,29.786,-14.397,220644
0.287,-0.204,-1.144,-28.305,35.985,-17.588,224655
0.274,-0.212,-1.149,-32.656,44.107,-21.115,228667
0.249,-0.219,-1.145,-37.313,53.145,-25.176,232686
0.222,-0.217,-1.138,-41.267,64.824,-29.115,236697
0.186,-0.208,-1.122,-44.092,79.359,-32.656,240708
0.163,-0.188,-1.115,-45.542,94.580,-34.534,244719
0.129,-0.168,-1.102,-46.092,112.412,-35.176,248731
0.111,-0.146,-1.097,-44.916,131.863,-34.519,252742
0.102,-0.119,-1.088,-43.389,152.382,-32.794,256754
0.127,-0.105,-1.062,-41.740,172.489,-30.107,260764
0.163,-0.091,-1.054,-39.328,190.763,-27.802,264775
0.201,-0.081,-1.047,-36.824,207.038,-24.672,268788
0.222,-0.070,-1.034,-34.427,222.137,-20.977,272799
0.263,-0.074,-1.032,-32.702,235.191,-16.672,276810
0.318,-0.075,-1.026,-31.130,245.893,-11.954,280821
0.369,-0.081,-1.008,-29.969,253.756,-7.985,284832
0.424,-0.091,-1.000,-28.901,259.115,-4.305,288843
0.469,-0.103,-0.990,-28.061,262.626,-1.450,292853
0.498,-0.094,-0.978,-27.160,263.710,0.656,296865
0.525,-0.086,-0.953,-26.321,263.145,1.863,300876
0.549,-0.078,-0.935,-24.901,261.679,2.687,304887
0.562,-0.060,-0.917,-22.962,260.214,3.740,308899
0.567,-0.045,-0.906,-21.252,259.206,4.260,312911
0.577,-0.033,-0.878,-19.740,257.145,4.718,316922
0.584,-0.036,-0.863,-18.382,255.374,3.985,320933
0.596,-0.032,-0.853,-16.992,254.809,3.160,324944
0.592,-0.046,-0.847,-16.260,255.542,1.908,328955
0.605,-0.049,-0.830,-15.924,256.015,0.443,332975
0.630,-0.057,-0.817,-15.985,256.015,-1.985,336985
0.646,-0.074,-0.802,-16.305,255.511,-4.672,340996
0.639,-0.096,-0.784,-17.053,254.122,-10.748,345007
0.672,-0.083,-0.795,-17.038,251.588,-13.985,349018
0.633,-0.135,-0.758,-19.542,251.221,-19.252,353039
0.724,-0.086,-0.783,-17.634,248.672,-16.641,357050
0.790,-0.072,-0.750,-20.076,247.863,-13.130,361061
0.817,-0.086,-0.739,-23.267,246.489,-12.153,365072
0.814,-0.085,-0.737,-21.527,242.916,-10.992,369083
0.796,-0.103,-0.712,-21.969,239.679,-9.634,373097
0.815,-0.073,-0.702,-21.695,236.824,-4.992,377107
0.829,-0.080,-0.674,-21.985,233.374,-3.496,381118
0.818,-0.079,-0.668,-22.260,231.252,-2.855,385129
0.811,-0.068,-0.663,-22.092,228.779,-0.855,389140
0.805,-0.081,-0.648,-22.275,226.885,-0.534,393150
0.810,-0.090,-0.626,-22.031,224.840,-0.718,397161
0.811,-0.083,-0.613,-21.191,222.901,-1.115,401172
0.790,-0.073,-0.603,-20.962,222.397,-2.565,405183
0.794,-0.057,-0.586,-19.710,219.969,-2.687,409194
0.822,-0.068,-0.568,-19.786,218.931,-0.412,413214
0.842,-0.062,-0.555,-19.847,218.718,1.863,417225
0.859,-0.069,-0.546,-19.328,217.435,3.221,421236
0.868,-0.081,-0.524,-19.786,215.863,5.053,425247
0.870,-0.079,-0.508,-19.710,214.321,6.473,429258
0.876,-0.084,-0.506,-19.740,212.595,7.237,433279
0.885,-0.086,-0.499,-20.031,210.931,7.420,437290
0.880,-0.083,-0.496,-20.214,210.412,6.855,441301
0.873,-0.080,-0.477,-20.229,209.863,6.321,445312
0.864,-0.084,-0.460,-19.878,209.420,5.405,449323
0.865,-0.082,-0.444,-19.130,209.740,4.412,453341
0.859,-0.077,-0.431,-18.687,211.099,3.878,457352
0.866,-0.082,-0.418,-17.740,212.534,4.550,461363
0.896,-0.079,-0.407,-16.733,213.221,4.107,465374
0.921,-0.083,-0.394,-18.489,213.389,2.855,469385
0.942,-0.095,-0.382,-19.435,211.359,1.664,473397
0.955,-0.094,-0.369,-20.107,209.328,0.901,477407
0.969,-0.099,-0.364,-20.580,208.519,0.641,481418
0.969,-0.098,-0.344,-20.748,206.901,1.832,485429
0.979,-0.097,-0.335,-20.916,204.275,3.115,489440
0.986,-0.098,-0.323,-20.733,200.656,4.305,493451
1.012,-0.089,-0.305,-21.282,196.992,5.664,497463
1.039,-0.082,-0.305,-21.664,192.000,7.588,501473
1.052,-0.078,-0.286,-21.573,187.267,8.305,505484
1.053,-0.079,-0.285,-21.802,182.931,9.023,509495
1.032,-0.073,-0.267,-20.809,179.145,9.206,513506
0.979,-0.052,-0.258,-19.008,177.206,5.221,517517
0.916,-0.053,-0.235,-16.702,177.084,4.000,521528
0.900,-0.068,-0.220,-15.267,179.389,9.359,525539
0.935,-0.064,-0.199,-13.878,181.450,13.084,529550
0.962,-0.076,-0.181,-13.740,183.527,16.321,533565
0.977,-0.082,-0.172,-13.969,185.069,17.511,537576
0.973,-0.084,-0.174,-13.282,186.321,18.748,541587
0.983,-0.090,-0.161,-14.137,187.527,18.580,545599
0.974,-0.096,-0.147,-16.229,187.481,16.458,549610
0.922,-0.100,-0.165,-15.679,186.489,12.321,553631
0.935,-0.127,-0.134,-17.359,186.168,11.771,557642
0.971,-0.113,-0.131,-16.611,184.351,9.878,561653
1.035,-0.143,-0.110,-17.634,182.061,11.130,565664
1.102,-0.133,-0.087,-20.153,178.122,11.588,569675
1.127,-0.133,-0.083,-20.763,173.115,12.351,573695
1.130,-0.129,-0.083,-22.076,168.351,13.435,577706
1.110,-0.114,-0.074,-22.901,162.687,14.458,581717
1.106,-0.108,-0.064,-23.328,155.893,15.115,585728
1.099,-0.098,-0.053,-22.855,148.611,14.412,589739
1.103,-0.097,-0.042,-22.153,142.809,12.595,593749
1.072,-0.094,-0.026,-21.145,138.397,11.252,597760
1.040,-0.074,-0.029,-19.069,135.237,7.527,601771
0.995,-0.070,-0.011,-16.962,133.695,5.176,605782
0.957,-0.074,0.017,-15.176,132.595,4.244,609793
0.982,-0.077,0.033,-13.847,132.168,7.053,613804
1.016,-0.088,0.034,-12.153,133.237,9.634,617814
1.047,-0.101,0.054,-11.206,132.641,12.534,621825
1.086,-0.118,0.066,-11.863,130.214,16.107,625836
1.094,-0.115,0.073,-11.939,126.458,17.664,629847
1.073,-0.124,0.074,-12.412,123.008,18.580,633868
1.051,-0.135,0.085,-13.053,119.527,18.672,637879
1.027,-0.131,0.069,-13.191,116.519,18.153,641890
1.010,-0.137,0.090,-13.817,113.832,17.084,645902
1.008,-0.131,0.100,-15.099,110.977,14.885,649914
0.994,-0.133,0.098,-15.573,109.817,12.519,653925
0.974,-0.125,0.104,-15.771,109.099,11.282,657936
0.974,-0.135,0.108,-16.290,108.412,10.565,661947
0.946,-0.120,0.105,-15.893,106.687,4.382,665958
0.957,-0.139,0.127,-17.435,107.893,3.908,669969
0.987,-0.131,0.133,-17.557,108.595,5.679,673980
1.014,-0.133,0.141,-18.198,108.947,6.412,677992
1.020,-0.137,0.153,-18.718,109.084,6.901,682002
1.033,-0.134,0.152,-19.267,107.298,8.031,686013
1.042,-0.132,0.163,-19.802,104.092,9.710,690024
1.035,-0.128,0.167,-19.282,101.267,11.237,694035
1.009,-0.123,0.179,-18.672,99.969,10.595,698046
0.984,-0.114,0.184,-17.191,98.885,11.847,702057
0.971,-0.102,0.196,-16.443,97.847,13.206,706068
0.980,-0.108,0.192,-15.664,96.489,14.260,710079
0.982,-0.109,0.213,-15.145,95.405,13.802,714090
0.974,-0.119,0.213,-14.290,94.305,13.115,718102
0.972,-0.099,0.222,-13.557,94.885,11.756,722113
0.944,-0.104,0.231,-12.473,97.389,11.710,726124
0.947,-0.105,0.220,-11.481,99.176,12.733,730135
0.949,-0.123,0.237,-10.626,100.290,13.405,734146
0.979,-0.125,0.255,-10.534,98.473,15.389,738157
1.008,-0.135,0.255,-10.473,95.771,15.817,742169
1.031,-0.147,0.266,-10.565,93.344,15.237,746180
1.017,-0.151,0.265,-11.389,91.389,13.313,750192
1.004,-0.152,0.262,-12.702,89.802,12.336,754203
0.987,-0.148,0.258,-13.496,88.168,10.916,758216
0.995,-0.156,0.261,-15.221,86.061,9.588,762227
1.023,-0.166,0.259,-17.298,82.916,9.496,766239
1.045,-0.178,0.276,-18.901,80.290,9.893,770250
1.047,-0.167,0.283,-19.863,78.076,9.817,774261
1.022,-0.164,0.294,-20.122,76.519,9.695,778273
0.981,-0.142,0.300,-19.863,75.481,9.466,782284
0.969,-0.128,0.308,-19.573,73.634,9.374,786296
0.963,-0.114,0.326,-19.023,71.939,9.145,790306
0.974,-0.119,0.323,-18.489,70.641,8.748,794317
0.982,-0.126,0.330,-17.450,69.496,8.351,798329
0.989,-0.134,0.344,-16.733,68.595,8.275,802341
0.978,-0.128,0.341,-15.603,67.588,8.611,806351
0.966,-0.117,0.345,-14.458,66.000,7.344,810362
0.958,-0.122,0.347,-13.435,64.458,7.420,814373
0.981,-0.125,0.352,-12.626,61.863,8.046,818384
0.993,-0.132,0.346,-11.725,58.947,8.290,822396
1.011,-0.147,0.364,-11.420,55.863,8.244,826407
1.017,-0.160,0.360,-11.527,52.427,7.985,830418
1.021,-0.170,0.362,-12.183,47.969,6.977,834430
1.017,-0.171,0.366,-12.611,44.687,5.695,838440
0.992,-0.165,0.373,-12.901,42.214,4.718,842452
0.967,-0.167,0.362,-13.420,40.794,4.214,846462
0.940,-0.161,0.365,-13.771,38.992,3.939,850473
0.946,-0.161,0.360,-14.641,36.366,3.389,854484
0.950,-0.167,0.361,-15.603,34.137,3.038,858495
0.964,-0.166,0.360,-16.198,32.519,2.153,862506
0.966,-0.161,0.365,-16.779,31.359,1.634,866517
0.961,-0.160,0.375,-17.206,29.954,1.267,870528
0.953,-0.161,0.369,-17.344,28.931,1.328,874539
0.958,-0.152,0.365,-17.267,27.130,1.191,878547
0.951,-0.141,0.377,-16.198,24.916,1.145,882558
0.958,-0.144,0.375,-14.702,22.214,0.382,886569
0.965,-0.132,0.388,-13.405,19.252,-0.275,890581
0.979,-0.132,0.377,-12.366,16.092,-1.145,894592
0.984,-0.131,0.383,-11.618,12.656,-1.893,898603
0.986,-0.140,0.378,-11.115,9.710,-2.382,902614
0.974,-0.149,0.375,-10.672,7.038,-3.084,906625
0.971,-0.152,0.378,-10.504,4.305,-3.420,910637
0.958,-0.163,0.370,-10.641,2.122,-4.000,914648
0.954,-0.166,0.376,-10.672,0.824,-4.641,918659
0.944,-0.163,0.368,-10.992,0.122,-5.053,922680
0.939,-0.159,0.377,-11.313,-0.489,-5.374,926691
0.934,-0.155,0.377,-11.588,-1.252,-5.771,930702
0.922,-0.160,0.378,-11.939,-1.160,-5.511,934713
0.911,-0.162,0.370,-12.260,-0.534,-5.542,938724
0.901,-0.159,0.374,-12.214,-0.092,-5.237,942739
0.898,-0.160,0.374,-12.275,1.023,-4.626,946750
0.901,-0.164,0.371,-12.260,1.359,-4.000,950762
0.895,-0.161,0.367,-12.168,2.718,-3.573,954773
0.896,-0.153,0.367,-11.573,3.863,-3.237,958783
0.892,-0.148,0.371,-10.534,5.084,-3.145,962795
0.895,-0.138,0.369,-9.405,5.710,-2.885,966806
0.904,-0.129,0.359,-8.733,6.046,-2.702,970817
0.912,-0.134,0.359,-8.168,6.947,-2.443,974828
0.913,-0.137,0.357,-7.267,7.725,-2.336,978839
0.918,-0.137,0.364,-7.069,8.031,-2.183,982849
0.923,-0.146,0.356,-7.389,8.092,-1.893,986861
0.911,-0.153,0.350,-7.527,8.000,-2.046,990872
0.918,-0.156,0.362,-8.076,8.260,-2.397,994883
0.916,-0.158,0.347,-8.565,7.771,-2.870,998895
0.928,-0.161,0.359,-9.176,7.664,-2.977,1002904
0.926,-0.169,0.363,-10.031,6.977,-3.756,1006915
0.931,-0.172,0.358,-10.824,6.534,-4.366,1010926
0.930,-0.173,0.351,-11.618,6.229,-4.962,1014937
0.921,-0.175,0.343,-12.214,6.336,-5.542,1018948
0.917,-0.164,0.347,-12.748,6.076,-5.924,1022967
0.917,-0.164,0.354,-12.992,6.000,-6.168,1026978
0.917,-0.162,0.360,-12.947,5.557,-6.901,1030989
0.926,-0.160,0.363,-12.718,5.389,-6.641,1035000
0.928,-0.152,0.362,-12.290,5.313,-6.305,1039011
0.928,-0.150,0.365,-11.695,4.336,-6.214,1043032
0.931,-0.143,0.369,-10.580,3.756,-5.725,1047043
0.932,-0.138,0.379,-9.557,2.779,-5.420,1051055
0.930,-0.140,0.365,-9.038,1.588,-4.870,1055065
0.934,-0.146,0.367,-8.244,0.534,-4.534,1059076
0.933,-0.155,0.370,-7.954,-0.427,-4.397,1063088
0.936,-0.154,0.372,-7.603,-1.466,-4.275,1067098
0.938,-0.158,0.376,-7.420,-2.840,-4.061,1071109
0.932,-0.161,0.377,-7.298,-3.985,-4.061,1075120
0.935,-0.161,0.374,-7.282,-5.863,-3.893,1079131
0.939,-0.167,0.379,-7.206,-7.191,-3.634,1083141
0.937,-0.163,0.374,-6.855,-9.130,-3.557,1087153
0.934,-0.155,0.382,-6.656,-10.351,-3.359,1091163
0.926,-0.162,0.382,-6.473,-11.191,-3.298,1095174
0.920,-0.155,0.377,-6.244,-12.153,-3.069,1099185
0.911,-0.160,0.387,-6.000,-12.565,-3.130,1103206
0.907,-0.165,0.366,-5.832,-12.641,-3.313,1107217
0.913,-0.163,0.371,-5.450,-12.870,-3.176,1111228
0.916,-0.156,0.379,-5.053,-12.702,-3.145,1115239
0.919,-0.158,0.379,-4.870,-12.565,-3.466,1119250
0.929,-0.159,0.377,-4.672,-12.168,-3.313,1123271
0.931,-0.151,0.376,-4.748,-13.008,-3.802,1127283
0.955,-0.161,0.366,-4.962,-14.550,-4.275,1131294
0.963,-0.171,0.366,-5.191,-16.489,-5.084,1135305
0.983,-0.171,0.365,-5.359,-18.947,-5.908,1139317
1.000,-0.167,0.361,-5.557,-22.504,-6.611,1143334
1.024,-0.174,0.371,-6.183,-27.481,-7.786,1147345
1.045,-0.177,0.376,-6.809,-33.802,-9.115,1151356
1.069,-0.176,0.365,-7.664,-40.824,-10.931,1155367
1.093,-0.180,0.373,-8.198,-48.748,-12.565,1159378
1.103,-0.177,0.374,-8.504,-56.519,-14.412,1163390
1.104,-0.180,0.371,-8.489,-64.641,-15.985,1167401
1.098,-0.172,0.373,-8.641,-72.275,-17.863,1171413
1.087,-0.164,0.364,-8.672,-79.939,-19.878,1175423
1.092,-0.161,0.371,-8.687,-86.794,-21.802,1179434
1.083,-0.164,0.381,-8.794,-92.718,-23.695,1183445
1.085,-0.158,0.379,-8.626,-98.962,-25.389,1187456
1.086,-0.159,0.364,-8.473,-104.382,-27.099,1191467
1.070,-0.154,0.358,-7.985,-108.580,-28.824,1195478
1.054,-0.151,0.366,-6.870,-112.000,-29.740,1199489
1.033,-0.134,0.341,-5.466,-114.198,-30.916,1203500
1.011,-0.121,0.344,-3.573,-114.809,-32.198,1207512
0.996,-0.104,0.331,-1.221,-115.115,-33.740,1211523
0.990,-0.105,0.323,0.443,-114.809,-34.183,1215534
0.999,-0.088,0.328,1.542,-113.954,-35.771,1219545
1.007,-0.084,0.294,3.008,-115.191,-37.084,1223554
1.023,-0.102,0.292,4.015,-117.908,-37.725,1227565
1.018,-0.106,0.282,4.397,-118.947,-38.137,1231576
1.028,-0.116,0.267,4.870,-119.740,-37.634,1235588
1.036,-0.113,0.253,5.221,-121.237,-37.069,1239599
1.039,-0.107,0.241,4.962,-123.756,-36.183,1243618
1.044,-0.108,0.224,4.641,-126.702,-36.351,1247629
1.047,-0.106,0.221,4.305,-129.603,-35.863,1251640
1.044,-0.100,0.204,3.939,-132.733,-35.176,1255652
1.056,-0.093,0.196,3.679,-137.466,-34.397,1259663
1.060,-0.080,0.182,3.374,-142.718,-33.985,1263684
1.076,-0.076,0.160,4.000,-149.863,-31.893,1267695
1.083,-0.074,0.179,2.977,-155.053,-30.779,1271707
1.063,-0.065,0.167,2.153,-159.405,-30.153,1275718
1.063,-0.079,0.159,2.046,-164.229,-28.595,1279729
1.043,-0.080,0.144,2.672,-168.840,-27.710,1283741
1.025,-0.080,0.145,3.038,-172.885,-26.107,1287751
1.005,-0.067,0.118,4.473,-176.260,-25.420,1291762
0.991,-0.061,0.101,5.588,-179.023,-25.115,1295773
0.990,-0.047,0.093,7.130,-181.603,-24.458,1299784
0.990,-0.034,0.085,8.718,-184.092,-23.725,1303797
0.989,-0.021,0.079,10.504,-186.504,-23.206,1307808
0.980,-0.016,0.065,11.939,-187.313,-24.366,1311818
0.982,-0.009,0.044,13.908,-189.099,-26.382,1315829
1.000,-0.022,0.028,14.855,-192.244,-28.397,1319840
1.030,-0.035,0.027,14.779,-196.580,-30.168,1323861
1.083,-0.031,-0.000,15.969,-204.641,-31.191,1327872
1.104,-0.057,-0.000,14.214,-211.450,-31.588,1331883
1.135,-0.038,-0.030,15.573,-220.901,-32.153,1335894
1.130,-0.066,-0.044,12.962,-228.656,-33.496,1339914
1.152,-0.072,-0.067,10.366,-239.893,-35.542,1343925
1.191,-0.093,-0.076,8.153,-255.374,-36.855,1347936
1.234,-0.112,-0.066,5.863,-272.992,-35.206,1351947
1.262,-0.138,-0.073,1.969,-288.458,-34.351,1355958
1.270,-0.103,-0.079,2.718,-305.191,-34.260,1359969
1.222,-0.115,-0.085,0.260,-318.733,-33.130,1363980
1.172,-0.065,-0.079,0.260,-331.924,-30.718,1367992
1.139,-0.046,-0.094,-0.290,-343.603,-24.870,1372002
1.094,-0.036,-0.072,-1.511,-352.015,-20.641,1376013
1.043,-0.026,-0.095,-0.168,-357.603,-16.275,1380024
1.004,-0.032,-0.102,1.191,-361.756,-8.183,1384035
0.951,-0.016,-0.112,1.969,-363.344,-4.534,1388046
0.907,-0.008,-0.119,4.977,-365.069,0.137,1392057
0.887,0.020,-0.125,9.313,-367.115,2.061,1396068
0.845,0.007,-0.165,15.130,-369.802,1.115,1400079
0.771,0.044,-0.166,18.489,-368.992,0.733,1404090
0.715,0.082,-0.205,23.130,-364.504,1.725,1408102
0.681,0.098,-0.241,28.015,-359.832,6.214,1412113
0.718,0.151,-0.247,33.924,-357.756,7.008,1416124
0.716,0.105,-0.266,37.634,-354.046,3.496,1420135
0.689,0.074,-0.293,42.153,-348.198,0.214,1424146
0.674,0.034,-0.309,44.092,-340.977,-0.809,1428157
0.706,0.019,-0.392,51.786,-337.298,0.565,1432169
0.722,-0.018,-0.418,51.252,-331.908,1.023,1436180
0.754,-0.070,-0.442,47.802,-326.153,-0.489,1440192
0.771,-0.068,-0.459,47.221,-322.901,-2.229,1444203
0.760,-0.130,-0.503,43.588,-320.229,-4.198,1448216
0.739,-0.123,-0.524,40.275,-317.008,-9.191,1452227
0.707,-0.145,-0.571,38.489,-313.527,-11.756,1456239
0.685,-0.166,-0.613,35.160,-309.435,-12.031,1460250
0.708,-0.189,-0.628,30.107,-305.420,-10.168,1464261
0.731,-0.176,-0.648,25.176,-301.878,-9.176,1468273
0.725,-0.220,-0.654,22.443,-299.221,-5.664,1472284
0.721,-0.194,-0.678,18.382,-296.366,-2.885,1476296
0.706,-0.156,-0.694,15.649,-293.832,-2.901,1480306
0.671,-0.133,-0.717,14.427,-291.542,-3.084,1484317
0.639,-0.119,-0.730,13.542,-289.206,-3.038,1488329
0.625,-0.126,-0.758,11.099,-286.992,-4.137,1492341
0.619,-0.110,-0.760,9.740,-284.489,-7.130,1496351
0.622,-0.159,-0.786,11.481,-282.229,-14.687,1500362
0.527,-0.111,-0.799,8.031,-275.817,-15.756,1504373
0.470,-0.072,-0.843,8.214,-265.603,-12.641,1508384
0.460,-0.048,-0.856,8.504,-255.634,-8.733,1512396
0.457,-0.041,-0.853,7.099,-245.237,-7.160,1516407
0.475,-0.055,-0.880,7.298,-235.481,-5.954,1520418
0.474,-0.084,-0.898,7.771,-226.244,-6.565,1524430
0.491,-0.112,-0.914,7.313,-220.504,-7.038,1528440
0.544,-0.147,-0.914,6.198,-218.550,-8.198,1532452
0.576,-0.161,-0.889,2.198,-216.580,-3.771,1536462
0.537,-0.133,-0.940,4.595,-211.282,-2.336,1540473
0.451,-0.087,-0.947,4.885,-204.641,0.214,1544484
0.367,-0.041,-0.943,4.137,-195.939,2.107,1548495
0.322,-0.010,-0.964,4.962,-188.473,2.641,1552506
0.301,-0.032,-0.973,5.405,-181.038,1.115,1556517
0.314,-0.054,-0.969,6.504,-173.099,0.229,1560528
0.351,-0.059,-0.983,8.931,-164.107,1.069,1564539
0.366,-0.070,-0.976,10.626,-155.298,2.672,1568547
0.357,-0.049,-0.982,11.740,-146.702,5.344,1572558
0.351,-0.031,-0.982,13.481,-138.794,9.389,1576569
0.324,-0.036,-0.980,15.634,-131.160,10.901,1580581
0.304,-0.023,-0.978,17.038,-124.321,11.496,1584592
0.305,-0.038,-0.969,17.664,-119.221,15.389,1588603
0.318,-0.016,-0.993,20.550,-114.305,17.634,1592614
0.298,-0.028,-0.981,21.511,-108.427,17.847,1596625
0.253,-0.031,-0.981,22.962,-102.580,16.702,1600637
0.228,-0.048,-0.987,23.557,-96.183,15.786,1604648
0.212,-0.042,-0.988,24.321,-90.916,13.863,1608659
0.212,-0.039,-0.995,25.420,-83.420,12.275,1612680
0.208,-0.038,-0.998,26.107,-75.649,11.053,1616691
0.208,-0.034,-1.006,27.313,-67.634,9.817,1620702
0.213,-0.034,-1.004,28.473,-59.481,8.763,1624713
0.194,-0.046,-1.012,29.878,-52.397,8.489,1628724
0.183,-0.054,-1.005,31.267,-42.061,6.366,1632739
0.180,-0.061,-1.029,32.137,-35.176,7.221,1636750
0.240,-0.076,-1.032,32.153,-36.153,7.099,1640762
0.270,-0.103,-1.045,32.000,-33.588,5.893,1644773
0.266,-0.143,-1.063,32.046,-28.824,11.466,1648783
0.305,-0.154,-1.079,31.511,-25.023,15.725,1652795
0.364,-0.146,-1.078,30.733,-24.626,15.313,1656806
0.372,-0.148,-1.101,29.878,-26.015,12.275,1660817
0.352,-0.148,-1.109,29.557,-27.130,11.359,1664828
0.331,-0.143,-1.126,30.046,-27.969,12.718,1668839
0.328,-0.147,-1.127,29.802,-27.603,14.809,1672849
0.336,-0.152,-1.135,29.878,-27.496,16.748,1676861
0.338,-0.156,-1.133,29.618,-27.099,17.176,1680872
0.333,-0.149,-1.120,30.275,-27.405,16.336,1684883
0.322,-0.154,-1.121,30.672,-27.939,15.542,1688895
0.306,-0.152,-1.132,30.809,-27.695,15.756,1692904
0.297,-0.156,-1.133,30.962,-26.733,15.786,1696915
0.297,-0.154,-1.124,30.702,-25.282,15.527,1700926
0.286,-0.158,-1.131,30.076,-24.046,14.489,1704938
0.289,-0.169,-1.141,28.733,-22.565,12.366,1708949
0.279,-0.167,-1.147,27.481,-21.435,9.282,1712968
0.278,-0.162,-1.148,26.550,-20.046,6.534,1716979
0.282,-0.168,-1.162,25.527,-18.595,4.962,1720990
0.292,-0.184,-1.166,23.649,-17.496,3.649,1725001
0.294,-0.190,-1.153,22.366,-16.687,2.947,1729012
0.307,-0.199,-1.163,20.885,-16.733,2.702,1733033
0.307,-0.205,-1.167,19.221,-16.779,2.947,1737044
0.311,-0.208,-1.174,17.481,-17.939,3.618,1741056
0.317,-0.216,-1.166,16.137,-19.038,3.924,1745067
0.321,-0.214,-1.178,14.641,-20.214,4.809,1749078
0.322,-0.220,-1.176,13.328,-21.282,5.115,1753090
0.315,-0.211,-1.183,12.092,-21.817,5.863,1757101
0.311,-0.217,-1.188,10.870,-22.015,6.382,1761113
0.290,-0.212,-1.192,10.321,-21.557,6.855,1765124
0.279,-0.208,-1.194,9.802,-20.534,7.771,1769135
0.261,-0.199,-1.185,9.634,-18.962,7.847,1773145
0.258,-0.198,-1.195,9.634,-16.947,8.305,1777156
0.237,-0.195,-1.192,8.733,-14.137,7.863,1781167
0.240,-0.196,-1.201,8.412,-11.542,7.863,1785179
0.239,-0.202,-1.178,7.450,-8.687,7.206,1789190
0.242,-0.202,-1.182,6.840,-6.107,6.595,1793209
0.244,-0.206,-1.189,6.397,-3.618,5.924,1797220
0.243,-0.208,-1.180,6.183,-0.947,5.450,1801231
0.247,-0.205,-1.167,6.015,1.527,5.069,1805242
0.252,-0.201,-1.172,6.137,4.015,4.947,1809253
0.260,-0.197,-1.170,6.046,6.626,4.626,1813272
0.254,-0.200,-1.167,6.000,8.305,4.656,1817283
0.263,-0.198,-1.165,5.695,9.557,4.672,1821294
0.275,-0.209,-1.168,5.359,10.534,4.580,1825305
0.292,-0.204,-1.163,4.885,10.550,4.489,1829316
0.290,-0.218,-1.154,4.122,10.702,4.489,1833334
0.297,-0.215,-1.148,3.542,10.565,4.382,1837345
0.303,-0.214,-1.144,2.901,10.504,4.565,1841356
0.300,-0.219,-1.146,2.031,10.443,4.702,1845367
0.301,-0.216,-1.153,1.084,9.969,4.779,1849378
0.314,-0.223,-1.147,0.244,9.634,4.931,1853389
0.310,-0.218,-1.157,-0.611,9.252,4.748,1857401
0.320,-0.222,-1.157,-1.389,8.504,4.534,1861411
0.317,-0.215,-1.138,-2.061,7.435,4.290,1865422
0.316,-0.212,-1.141,-2.565,6.840,4.214,1869433
0.300,-0.212,-1.136,-2.840,6.473,4.031,1873445
0.305,-0.208,-1.129,-3.038,6.229,3.679,1877456
0.288,-0.199,-1.123,-2.885,6.412,3.527,1881468
0.299,-0.201,-1.121,-2.947,6.336,3.176,1885478
0.294,-0.197,-1.123,-3.115,6.519,3.069,1889489
0.289,-0.197,-1.117,-2.977,6.534,2.855,1893499
0.295,-0.196,-1.115,-3.221,7.038,2.412,1897510
0.281,-0.204,-1.106,-3.771,7.420,2.382,1901521
0.281,-0.198,-1.111,-4.382,8.092,1.786,1905532
0.274,-0.205,-1.100,-5.099,9.374,1.847,1909543
0.284,-0.204,-1.103,-5.802,10.229,1.527,1913553
0.276,-0.199,-1.097,-6.000,11.603,1.649,1917565
0.275,-0.190,-1.092,-6.229,12.992,1.542,1921576
0.272,-0.181,-1.090,-5.695,14.656,1.695,1925588
0.269,-0.178,-1.085,-5.053,16.198,2.046,1929599
0.265,-0.178,-1.097,-4.214,16.916,2.351,1933618
0.287,-0.180,-1.093,-3.924,16.626,2.687,1937629
0.306,-0.183,-1.081,-3.847,15.481,3.160,1941640
0.321,-0.195,-1.069,-4.000,14.321,3.374,1945652
0.330,-0.206,-1.076,-4.718,12.443,3.802,1949663
0.327,-0.218,-1.086,-5.649,10.962,4.153,1953684
0.332,-0.218,-1.090,-6.885,9.008,4.137,1957695
0.329,-0.211,-1.091,-7.863,8.000,3.802,1961707
0.327,-0.211,-1.095,-8.565,6.992,3.267,1965718
0.324,-0.197,-1.084,-9.130,6.214,2.763,1969729
0.313,-0.192,-1.090,-9.115,5.725,2.122,1973741
0.315,-0.190,-1.077,-8.809,5.573,1.924,1977751
0.305,-0.182,-1.072,-8.473,5.695,1.832,1981762
0.306,-0.183,-1.071,-7.863,6.061,1.618,1985773
0.301,-0.179,-1.064,-7.023,6.443,1.649,1989784
0.291,-0.180,-1.071,-6.504,7.511,1.817,1993797
0.293,-0.184,-1.060,-5.878,8.031,2.321,1997808
0.295,-0.183,-1.058,-5.893,8.519,2.641,2001819
