acc_x,acc_y,acc_z,gyro_x,gyro_y,gyro_z,time
0.135,0.050,-1.115,-2.672,-0.275,0.595,0
0.141,0.042,-1.122,-3.008,-0.153,0.580,1326
0.135,0.052,-1.113,-3.176,-0.397,0.611,2614
0.136,0.044,-1.112,-3.069,-0.214,0.351,3901
0.139,0.043,-1.115,-3.466,-0.015,0.198,5189
0.137,0.048,-1.119,-3.160,0.153,0.031,6476
0.131,0.047,-1.122,-3.420,0.366,0.076,7763
0.134,0.045,-1.116,-3.725,0.443,0.076,9050
0.136,0.045,-1.124,-3.237,0.504,0.168,10345
0.138,0.040,-1.114,-3.710,0.489,0.183,11632
0.146,0.037,-1.117,-3.802,0.580,0.015,12919
0.136,0.044,-1.128,-3.374,1.023,-0.198,14206
0.146,0.037,-1.123,-3.786,1.023,-0.366,15495
0.141,0.035,-1.125,-3.771,0.718,-0.168,16782
0.138,0.040,-1.126,-3.511,0.809,-0.351,18069
0.139,0.039,-1.128,-3.969,1.023,-0.458,19356
0.141,0.037,-1.119,-3.527,0.733,-0.382,20643
0.139,0.039,-1.121,-3.573,0.733,-0.443,21930
0.140,0.039,-1.123,-3.969,1.008,-0.443,23217
0.139,0.042,-1.117,-3.511,0.794,-0.519,24504
0.141,0.042,-1.123,-3.756,0.412,-0.656,25791
0.144,0.035,-1.121,-3.740,0.382,-0.687,27078
0.138,0.046,-1.127,-3.069,0.443,-0.580,28365
0.140,0.045,-1.119,-3.389,0.275,-0.672,29652
0.144,0.042,-1.124,-3.145,0.321,-0.794,30949
0.144,0.039,-1.128,-3.008,0.550,-0.916,32236
0.148,0.044,-1.135,-3.389,0.519,-1.053,33523
0.145,0.045,-1.138,-2.962,0.244,-1.069,34810
0.141,0.043,-1.133,-2.809,0.336,-1.206,36097
0.146,0.039,-1.121,-2.779,0.565,-1.328,37384
0.144,0.034,-1.123,-2.153,0.473,-1.328,38671
0.143,0.033,-1.127,-2.534,0.290,-1.191,39966
0.129,0.036,-1.128,-2.519,0.290,-1.267,41253
0.138,0.035,-1.135,-2.122,0.290,-1.496,42540
0.137,0.039,-1.131,-2.489,0.244,-1.511,43827
0.138,0.037,-1.121,-2.092,0.366,-1.328,45114
0.140,0.038,-1.128,-1.893,0.427,-1.206,46401
0.136,0.043,-1.130,-2.153,0.229,-1.405,47688
0.140,0.038,-1.127,-1.664,0.290,-1.359,48975
0.133,0.036,-1.128,-1.756,0.550,-1.374,50271
0.136,0.032,-1.123,-1.924,0.595,-1.313,51558
0.136,0.037,-1.132,-1.267,0.901,-1.496,52845
0.130,0.037,-1.123,-1.832,0.824,-1.435,54132
0.133,0.041,-1.116,-1.832,0.779,-1.420,55420
0.130,0.043,-1.122,-1.511,1.008,-1.359,56707
0.124,0.045,-1.131,-1.954,1.160,-1.511,57994
0.126,0.038,-1.126,-1.588,0.947,-1.527,59281
0.123,0.036,-1.128,-1.389,1.069,-1.359,60578
0.129,0.035,-1.133,-1.786,1.389,-1.435,61865
0.132,0.039,-1.136,-1.420,1.405,-1.618,63152
0.127,0.038,-1.135,-1.786,1.450,-1.527,64439
0.125,0.042,-1.128,-2.031,1.420,-1.374,65726
0.131,0.038,-1.128,-1.634,1.618,-1.313,67013
0.127,0.044,-1.131,-1.985,1.924,-1.420,68300
0.135,0.045,-1.125,-1.893,1.771,-1.328,69587
0.132,0.039,-1.127,-1.847,1.679,-1.313,70884
0.130,0.045,-1.116,-2.382,1.771,-1.344,72171
0.130,0.041,-1.119,-2.061,1.954,-1.145,73458
0.137,0.031,-1.121,-2.137,1.878,-1.267,74745
0.143,0.029,-1.123,-2.733,1.893,-1.099,76033
0.137,0.030,-1.125,-2.397,1.740,-1.115,77320
0.137,0.030,-1.126,-2.718,1.740,-1.298,78607
0.141,0.027,-1.131,-2.947,1.588,-1.206,79894
0.139,0.033,-1.123,-2.779,1.527,-0.916,81191
0.139,0.030,-1.114,-3.130,1.649,-1.176,82478
0.138,0.031,-1.120,-2.992,1.557,-1.145,83765
0.147,0.034,-1.128,-2.901,1.313,-1.008,85051
0.138,0.033,-1.131,-3.542,1.176,-0.931,86338
0.141,0.029,-1.135,-3.191,1.160,-1.023,87625
0.144,0.035,-1.129,-3.344,1.053,-0.977,88912
0.142,0.024,-1.126,-3.634,0.977,-1.023,90199
0.143,0.038,-1.119,-3.069,0.916,-0.992,91486
0.141,0.036,-1.118,-3.359,1.008,-1.084,92773
0.144,0.036,-1.119,-3.527,0.794,-1.053,94060
0.143,0.038,-1.131,-3.313,0.656,-1.008,95347
0.140,0.040,-1.124,-3.847,0.427,-1.084,96634
0.137,0.046,-1.117,-3.649,0.412,-1.023,97921
0.144,0.040,-1.119,-3.435,0.351,-1.130,99208
0.144,0.034,-1.123,-3.924,0.305,-1.206,100505
0.146,0.029,-1.121,-3.634,0.244,-1.145,101792
0.144,0.039,-1.118,-3.817,0.061,-1.328,103079
0.143,0.039,-1.129,-4.061,0.198,-1.130,104366
0.134,0.032,-1.122,-3.725,0.229,-1.237,105653
0.131,0.039,-1.118,-4.229,0.107,-1.359,106940
0.133,0.032,-1.120,-4.244,-0.046,-1.298,108227
0.136,0.032,-1.113,-3.817,-0.092,-1.359,109514
0.138,0.034,-1.112,-4.275,-0.015,-1.237,110801
0.137,0.037,-1.119,-3.863,0.046,-1.145,112088
0.136,0.041,-1.117,-4.031,0.092,-1.130,113375
0.137,0.035,-1.125,-4.565,-0.031,-1.084,114662
0.138,0.036,-1.126,-3.969,-0.214,-0.901,115950
0.135,0.037,-1.118,-4.260,-0.214,-0.733,117237
0.135,0.035,-1.123,-4.504,-0.229,-0.840,118524
0.134,0.028,-1.114,-3.969,-0.107,-0.626,119811
0.137,0.034,-1.119,-4.382,0.061,-0.641,121103
0.139,0.032,-1.122,-4.443,-0.076,-0.748,122390
0.134,0.035,-1.125,-4.137,-0.122,-0.550,123677
0.129,0.036,-1.122,-4.519,0.031,-0.595,124966
0.140,0.036,-1.117,-4.107,-0.107,-0.595,126253
0.139,0.032,-1.115,-4.092,-0.031,-0.733,127540
0.138,0.035,-1.121,-4.458,0.122,-0.718,128827
0.132,0.037,-1.122,-3.878,0.046,-0.687,130114
0.131,0.032,-1.124,-4.107,-0.076,-0.702,131401
0.132,0.030,-1.119,-4.275,-0.137,-0.824,132688
0.129,0.034,-1.120,-3.954,0.015,-0.809,133975
0.129,0.037,-1.127,-4.183,0.076,-0.916,135263
0.132,0.034,-1.123,-3.954,0.168,-1.130,136550
0.130,0.032,-1.120,-3.649,0.260,-1.160,137837
0.128,0.037,-1.117,-4.000,0.397,-1.069,139124
0.132,0.044,-1.106,-3.664,0.611,-1.008,140410
0.132,0.046,-1.108,-3.664,0.550,-1.206,141697
0.136,0.047,-1.121,-3.802,0.534,-1.191,142984
0.125,0.043,-1.108,-3.206,0.947,-1.328,144271
0.129,0.040,-1.120,-3.542,0.855,-1.374,145558
0.139,0.044,-1.114,-3.313,0.733,-1.405,146845
0.135,0.048,-1.116,-2.733,0.977,-1.389,148132
0.132,0.044,-1.124,-3.069,1.099,-1.527,149419
0.135,0.047,-1.118,-2.611,1.206,-1.496,150707
0.129,0.047,-1.112,-2.489,1.115,-1.374,151994
0.130,0.044,-1.114,-2.748,1.115,-1.466,153281
0.124,0.047,-1.119,-1.985,1.206,-1.618,154568
0.124,0.045,-1.122,-1.969,1.313,-1.466,155855
0.129,0.042,-1.125,-2.153,1.374,-1.282,157142
0.135,0.043,-1.114,-1.664,1.282,-1.374,158429
0.130,0.039,-1.120,-1.878,1.130,-1.328,159716
0.128,0.039,-1.127,-1.679,1.145,-1.298,161003
0.129,0.032,-1.112,-1.435,1.191,-1.160,162290
0.127,0.037,-1.118,-2.000,1.282,-1.237,163577
0.134,0.040,-1.119,-1.435,1.221,-1.191,164864
0.135,0.039,-1.108,-1.145,1.053,-0.962,166152
0.132,0.037,-1.116,-1.557,1.130,-0.824,167439
0.131,0.038,-1.122,-0.916,0.809,-0.885,168726
0.135,0.031,-1.118,-1.038,0.794,-0.916,170012
0.135,0.039,-1.114,-1.115,0.672,-0.763,171299
0.133,0.034,-1.108,-0.534,0.504,-0.733,172586
0.144,0.034,-1.110,-0.947,0.305,-0.718,173873
0.138,0.038,-1.112,-0.733,0.275,-0.504,175160
0.136,0.035,-1.113,-0.214,0.137,-0.611,176447
0.138,0.039,-1.112,-0.626,-0.214,-0.611,177734
0.143,0.033,-1.111,-0.198,-0.427,-0.305,179021
0.140,0.042,-1.116,-0.092,-0.748,-0.244,180318
0.141,0.033,-1.121,-0.244,-0.702,-0.275,181605
0.140,0.029,-1.113,0.351,-0.626,-0.321,182892
0.142,0.035,-1.130,0.092,-1.267,-0.305,184179
0.137,0.034,-1.124,0.015,-1.527,-0.183,185466
0.134,0.033,-1.122,0.443,-1.664,-0.229,186753
0.142,0.031,-1.118,0.137,-2.061,-0.229,188040
0.142,0.036,-1.122,0.611,-2.076,-0.122,189327
0.134,0.034,-1.116,0.809,-2.198,0.061,190620
0.140,0.033,-1.112,0.321,-2.366,-0.183,191907
0.142,0.039,-1.115,0.748,-2.473,-0.229,193194
0.139,0.038,-1.112,0.565,-3.023,-0.015,194481
0.139,0.031,-1.120,0.489,-3.313,-0.122,195768
0.133,0.032,-1.113,0.977,-3.267,-0.107,197055
0.136,0.035,-1.117,0.550,-3.496,-0.122,198342
0.138,0.035,-1.118,0.702,-3.710,-0.183,199629
0.140,0.038,-1.112,1.221,-3.649,0.137,200926
0.139,0.040,-1.120,0.702,-3.695,0.092,202213
0.135,0.042,-1.121,0.855,-3.878,0.153,203500
0.131,0.041,-1.119,0.855,-3.878,0.198,204787
0.135,0.043,-1.121,0.366,-4.031,0.275,206074
0.129,0.041,-1.115,0.870,-4.260,0.229,207361
0.133,0.038,-1.122,0.519,-4.260,0.290,208648
0.133,0.036,-1.114,0.229,-4.122,0.443,209945
0.131,0.031,-1.120,0.641,-4.244,0.611,211232
0.131,0.031,-1.115,0.000,-4.183,0.672,212519
0.125,0.032,-1.118,-0.015,-4.351,0.504,213806
0.121,0.028,-1.117,0.244,-4.427,0.534,215092
0.132,0.025,-1.113,-0.534,-4.305,0.611,216379
0.129,0.025,-1.110,-0.427,-4.290,0.687,217666
0.128,0.032,-1.116,-0.427,-4.321,0.626,218953
0.117,0.031,-1.120,-0.840,-4.229,0.687,220250
0.124,0.028,-1.118,-0.458,-4.198,0.641,221537
0.125,0.029,-1.116,-0.855,-4.366,0.718,222824
0.119,0.034,-1.114,-1.252,-4.275,0.779,224111
0.118,0.035,-1.120,-0.687,-4.183,0.824,225397
0.129,0.037,-1.120,-1.221,-4.153,0.748,226684
0.125,0.032,-1.117,-1.099,-4.076,0.794,227971
0.121,0.036,-1.115,-0.977,-4.076,0.763,229258
0.120,0.032,-1.124,-1.603,-4.046,0.824,230555
0.123,0.035,-1.124,-1.145,-3.908,0.824,231842
0.123,0.035,-1.128,-1.191,-3.740,0.840,233129
0.120,0.035,-1.130,-1.603,-3.405,0.992,234416
0.118,0.038,-1.128,-1.023,-3.282,1.069,235703
0.115,0.036,-1.123,-1.328,-3.588,0.916,236990
0.115,0.034,-1.117,-1.450,-3.466,0.702,238277
0.113,0.034,-1.120,-1.053,-3.221,0.824,239564
0.112,0.026,-1.128,-1.420,-3.069,0.901,240860
0.113,0.027,-1.114,-1.221,-3.053,0.809,242147
0.113,0.025,-1.115,-0.901,-2.824,0.702,243434
0.114,0.030,-1.117,-1.557,-2.580,0.733,244721
0.111,0.030,-1.126,-0.977,-2.626,0.870,246008
0.112,0.028,-1.127,-0.824,-2.351,0.931,247295
0.112,0.032,-1.121,-1.389,-2.076,0.794,248582
0.116,0.034,-1.126,-0.901,-1.924,0.718,249869
0.115,0.030,-1.125,-1.328,-1.527,0.763,251166
0.111,0.031,-1.121,-1.267,-1.389,0.794,252453
0.116,0.027,-1.123,-0.611,-1.298,0.611,253740
0.116,0.025,-1.119,-1.298,-1.115,0.397,255027
0.110,0.029,-1.119,-1.145,-0.855,0.504,256314
0.113,0.028,-1.122,-1.038,-0.550,0.672,257601
0.116,0.024,-1.122,-1.466,-0.382,0.489,258888
0.114,0.028,-1.116,-1.069,-0.046,0.321,260176
0.116,0.029,-1.110,-1.298,0.214,0.427,261463
0.112,0.027,-1.115,-1.542,0.473,0.427,262750
0.118,0.033,-1.122,-1.053,0.687,0.290,264037
0.109,0.025,-1.121,-1.634,0.824,0.321,265324
0.110,0.027,-1.123,-1.786,1.160,0.473,266611
0.109,0.031,-1.121,-1.649,1.191,0.397,267898
0.110,0.032,-1.122,-2.214,1.527,0.382,269185
0.107,0.031,-1.122,-2.031,1.756,0.489,270481
0.113,0.028,-1.119,-2.183,1.817,0.595,271768
0.117,0.027,-1.123,-2.794,1.908,0.656,273055
0.115,0.025,-1.124,-2.458,2.000,0.504,274342
0.121,0.021,-1.118,-2.840,2.031,0.504,275631
0.120,0.022,-1.112,-3.099,2.107,0.534,276918
0.130,0.024,-1.124,-2.748,2.000,0.534,278205
0.125,0.021,-1.116,-3.511,2.244,0.458,279492
0.131,0.021,-1.111,-3.527,2.397,0.305,280778
0.124,0.027,-1.122,-3.206,2.443,0.397,282065
0.127,0.020,-1.121,-4.046,2.443,0.321,283352
0.125,0.025,-1.118,-3.893,2.427,0.366,284639
0.131,0.029,-1.120,-3.985,2.382,0.321,285927
0.128,0.030,-1.123,-4.489,2.458,0.275,287214
0.132,0.028,-1.127,-4.031,2.550,0.244,288501
0.132,0.026,-1.121,-4.626,2.382,0.046,289788
0.126,0.030,-1.116,-4.824,2.473,-0.076,291076
0.121,0.031,-1.117,-4.412,2.656,0.214,292363
0.123,0.033,-1.119,-5.069,2.550,0.092,293650
0.126,0.036,-1.115,-4.885,2.641,-0.061,294938
0.125,0.027,-1.132,-4.611,2.611,-0.229,296225
0.125,0.031,-1.118,-5.084,2.565,-0.168,297512
0.128,0.035,-1.122,-4.595,2.840,-0.107,298799
0.126,0.036,-1.119,-4.779,2.947,-0.183,300086
0.127,0.039,-1.127,-5.130,3.038,-0.305,301373
0.125,0.036,-1.126,-4.580,3.115,-0.336,302660
0.115,0.033,-1.116,-5.069,3.313,-0.458,303947
0.126,0.031,-1.116,-5.099,3.359,-0.489,305234
0.121,0.034,-1.116,-4.656,3.588,-0.580,306521
0.121,0.030,-1.111,-5.237,3.832,-0.534,307808
0.109,0.043,-1.113,-4.931,4.031,-0.489,309095
0.106,0.041,-1.113,-4.611,4.321,-0.580,310383
0.108,0.039,-1.115,-5.160,4.641,-0.611,311670
0.107,0.039,-1.117,-4.641,4.870,-0.534,312957
0.107,0.042,-1.122,-4.748,5.069,-0.412,314244
0.107,0.041,-1.117,-4.824,5.298,-0.443,315532
0.106,0.046,-1.115,-4.183,5.863,-0.443,316819
0.108,0.035,-1.115,-4.656,6.397,-0.550,318106
0.112,0.034,-1.111,-4.718,6.534,-0.672,319393
0.114,0.032,-1.113,-4.229,6.687,-0.489,320680
0.113,0.031,-1.118,-4.840,7.221,-0.595,321967
0.108,0.029,-1.121,-4.336,7.634,-0.519,323254
0.112,0.029,-1.118,-4.366,7.847,-0.412,324541
0.123,0.028,-1.104,-4.748,8.092,-0.580,325825
0.110,0.023,-1.119,-4.260,8.366,-0.534,327112
0.110,0.026,-1.121,-4.427,8.534,-0.626,328399
0.109,0.022,-1.120,-4.489,8.687,-0.473,329686
0.117,0.024,-1.117,-4.046,9.008,-0.550,330982
0.118,0.025,-1.128,-4.748,9.298,-0.565,332269
0.118,0.028,-1.120,-4.550,9.496,-0.504,333556
0.113,0.021,-1.125,-4.214,9.527,-0.641,334843
0.116,0.031,-1.124,-4.992,9.847,-0.824,336131
0.113,0.027,-1.119,-4.779,10.076,-0.779,337418
0.111,0.022,-1.124,-4.885,10.275,-0.901,338705
0.114,0.022,-1.122,-5.252,10.656,-1.115,339994
0.106,0.031,-1.127,-4.733,10.916,-1.176,341281
0.111,0.027,-1.126,-5.221,10.824,-1.344,342568
0.110,0.028,-1.128,-5.603,11.176,-1.557,343855
0.106,0.029,-1.114,-5.405,11.679,-1.802,345141
0.104,0.029,-1.119,-5.878,12.000,-1.893,346428
0.101,0.028,-1.124,-5.695,12.321,-1.939,347715
0.099,0.029,-1.123,-5.756,12.855,-2.168,349002
0.097,0.036,-1.113,-6.260,13.374,-2.336,350298
0.095,0.034,-1.115,-5.985,13.695,-2.336,351585
0.092,0.038,-1.118,-6.550,14.458,-2.611,352872
0.091,0.036,-1.110,-6.931,14.947,-3.008,354159
0.088,0.037,-1.109,-6.550,15.481,-3.023,355446
0.082,0.033,-1.115,-7.328,16.198,-3.191,356733
0.087,0.034,-1.117,-7.832,16.962,-3.527,358020
0.080,0.037,-1.115,-7.542,17.832,-3.771,359307
0.078,0.030,-1.117,-8.412,18.550,-4.000,360603
0.079,0.034,-1.118,-8.443,19.725,-4.321,361890
0.071,0.042,-1.122,-8.534,20.718,-4.565,363177
0.076,0.035,-1.124,-9.206,21.267,-4.870,364464
0.075,0.039,-1.118,-8.794,22.412,-5.221,365751
0.071,0.039,-1.120,-9.344,23.695,-5.542,367038
0.063,0.043,-1.114,-9.863,24.870,-5.786,368325
0.060,0.043,-1.109,-9.573,25.924,-6.107,369612
0.059,0.041,-1.111,-10.351,27.008,-6.366,370909
0.060,0.034,-1.123,-10.427,28.305,-6.702,372196
0.053,0.045,-1.120,-10.260,29.313,-6.855,373483
0.052,0.052,-1.119,-11.084,30.748,-7.282,374770
0.049,0.044,-1.119,-10.840,31.969,-7.603,376058
0.049,0.051,-1.119,-10.977,33.206,-8.031,377345
0.047,0.048,-1.120,-11.664,34.718,-8.351,378632
0.046,0.054,-1.122,-11.313,36.061,-8.962,379928
0.048,0.055,-1.115,-11.756,37.618,-9.542,381215
0.041,0.047,-1.124,-12.076,39.206,-10.092,382502
0.042,0.050,-1.124,-11.542,40.779,-10.504,383789
0.045,0.061,-1.122,-11.924,42.321,-10.947,385076
0.041,0.068,-1.113,-11.924,43.725,-11.450,386363
0.043,0.066,-1.109,-11.603,45.267,-12.351,387650
0.039,0.066,-1.109,-11.832,46.840,-13.069,388937
0.037,0.068,-1.112,-11.206,48.656,-13.588,390234
0.033,0.075,-1.108,-11.176,50.595,-14.351,391521
0.037,0.077,-1.099,-11.420,52.275,-15.023,392808
0.026,0.077,-1.099,-10.870,54.244,-15.802,394095
0.020,0.073,-1.093,-11.084,56.290,-16.641,395382
0.022,0.077,-1.093,-11.206,58.947,-17.893,396669
0.021,0.081,-1.093,-10.748,61.328,-18.718,397956
0.021,0.079,-1.095,-11.221,63.771,-19.863,399243
0.018,0.081,-1.091,-10.947,66.107,-21.176,400540
0.018,0.079,-1.088,-10.794,68.794,-22.321,401827
0.015,0.079,-1.093,-11.328,71.954,-23.588,403114
0.007,0.073,-1.080,-10.992,74.580,-24.656,404401
0.007,0.076,-1.077,-11.130,77.939,-26.000,405688
0.007,0.076,-1.081,-11.573,81.191,-27.267,406975
-0.002,0.077,-1.079,-11.176,85.069,-28.397,408262
-0.006,0.073,-1.080,-11.557,88.794,-29.450,409549
-0.016,0.078,-1.075,-11.786,92.458,-30.519,410840
-0.015,0.080,-1.082,-11.618,96.656,-31.557,412127
-0.014,0.068,-1.081,-12.321,100.504,-32.458,413414
-0.020,0.068,-1.076,-12.290,104.321,-33.405,414701
-0.022,0.072,-1.076,-12.687,108.840,-34.473,415990
-0.018,0.068,-1.074,-13.450,113.099,-35.405,417277
-0.018,0.073,-1.076,-13.527,117.344,-36.321,418564
-0.014,0.067,-1.081,-13.985,121.710,-37.298,419851
-0.010,0.058,-1.070,-14.153,125.908,-38.519,421147
-0.012,0.063,-1.074,-13.878,130.229,-39.832,422434
-0.003,0.060,-1.075,-14.382,134.397,-41.099,423721
-0.001,0.050,-1.060,-14.687,138.992,-42.580,425010
-0.002,0.044,-1.059,-14.779,143.252,-44.031,426297
0.002,0.045,-1.057,-15.374,147.618,-45.130,427584
-0.000,0.041,-1.060,-15.740,152.748,-46.427,428871
0.002,0.048,-1.048,-16.198,157.069,-47.450,430157
0.005,0.051,-1.060,-16.779,161.237,-48.198,431444
0.009,0.056,-1.058,-16.519,165.985,-49.053,432731
0.010,0.059,-1.049,-16.733,170.137,-50.015,434018
0.017,0.061,-1.047,-17.084,174.092,-50.947,435305
0.025,0.057,-1.061,-17.023,177.939,-51.695,436592
0.037,0.056,-1.046,-17.527,182.107,-52.824,437879
0.046,0.052,-1.056,-18.092,185.740,-53.710,439166
0.055,0.053,-1.053,-18.504,189.298,-54.489,440455
0.067,0.049,-1.052,-19.267,193.008,-55.511,441742
0.071,0.045,-1.053,-19.527,196.305,-56.244,443029
0.083,0.048,-1.053,-19.725,199.817,-57.053,444316
0.089,0.051,-1.038,-20.473,203.771,-57.832,445606
0.097,0.063,-1.040,-20.382,207.008,-58.702,446893
0.102,0.063,-1.041,-20.229,210.198,-59.573,448180
0.111,0.061,-1.034,-20.336,213.344,-60.458,449467
0.109,0.063,-1.030,-19.954,217.084,-61.435,450754
0.111,0.070,-1.027,-19.817,220.290,-62.412,452041
0.114,0.077,-1.016,-19.664,223.450,-63.313,453328
0.117,0.074,-1.011,-19.206,227.038,-64.046,454615
0.119,0.077,-1.015,-19.206,230.275,-64.702,455903
0.127,0.077,-1.004,-18.794,233.191,-65.282,457190
0.127,0.087,-1.002,-18.290,236.611,-65.756,458477
0.129,0.088,-0.998,-18.061,239.359,-65.725,459764
0.144,0.088,-0.993,-17.099,242.076,-65.817,461050
0.152,0.085,-0.999,-16.275,244.656,-66.046,462337
0.156,0.079,-0.988,-15.969,247.527,-66.000,463624
0.173,0.080,-1.000,-15.282,249.740,-65.969,464911
0.195,0.072,-0.976,-15.328,251.832,-65.725,466198
0.201,0.065,-0.978,-15.130,254.244,-65.237,467485
0.207,0.062,-0.988,-14.794,256.275,-65.145,468772
0.224,0.062,-0.979,-14.992,257.786,-64.992,470060
0.239,0.062,-0.977,-14.565,259.313,-64.656,471347
0.251,0.060,-0.974,-13.893,260.992,-64.656,472634
0.260,0.058,-0.976,-13.481,262.626,-65.191,473921
0.277,0.068,-0.967,-12.748,263.954,-65.267,475208
0.286,0.074,-0.964,-12.229,265.038,-65.267,476495
0.289,0.077,-0.964,-11.725,265.786,-65.435,477782
0.303,0.073,-0.962,-10.809,266.519,-65.420,479069
0.305,0.074,-0.963,-10.611,267.023,-65.282,480362
0.305,0.075,-0.963,-10.229,267.420,-65.130,481649
0.318,0.073,-0.956,-9.756,267.817,-64.901,482936
0.328,0.079,-0.951,-9.863,268.061,-64.473,484223
0.335,0.082,-0.955,-9.267,268.168,-64.366,485511
0.353,0.082,-0.953,-8.885,268.214,-64.153,486798
0.367,0.080,-0.949,-9.053,268.229,-63.725,488085
0.374,0.082,-0.948,-8.763,268.321,-63.695,489372
0.380,0.081,-0.948,-8.718,268.229,-63.603,490660
0.392,0.077,-0.949,-8.992,268.000,-63.420,491947
0.403,0.076,-0.928,-8.824,267.954,-63.237,493234
0.405,0.070,-0.933,-9.313,267.710,-62.916,494521
0.416,0.067,-0.933,-9.725,267.298,-62.794,495809
0.425,0.063,-0.937,-9.924,266.824,-62.443,497096
0.426,0.062,-0.927,-10.809,266.565,-62.122,498383
0.434,0.059,-0.919,-11.237,266.489,-61.649,499670
0.444,0.061,-0.918,-11.878,266.260,-61.496,500967
0.449,0.052,-0.927,-12.885,266.183,-61.252,502254
0.459,0.048,-0.917,-13.405,266.214,-60.809,503541
0.464,0.047,-0.920,-14.305,266.122,-60.580,504828
0.465,0.039,-0.905,-15.954,265.786,-60.275,506115
0.474,0.037,-0.904,-16.962,265.634,-59.863,507402
0.474,0.038,-0.911,-18.183,265.725,-59.618,508689
0.476,0.035,-0.909,-19.634,265.786,-59.145,509983
0.483,0.033,-0.909,-20.763,265.542,-58.595,511270
0.492,0.029,-0.919,-22.107,265.542,-58.244,512557
0.497,0.030,-0.914,-23.206,265.649,-57.847,513844
0.504,0.024,-0.917,-24.458,265.710,-57.282,515131
0.506,0.024,-0.919,-26.076,265.527,-56.992,516418
0.510,0.016,-0.916,-27.710,265.206,-56.672,517705
0.516,0.015,-0.914,-29.237,264.809,-56.198,518992
0.523,0.019,-0.915,-30.931,264.443,-55.740,520287
0.521,0.018,-0.910,-32.107,264.275,-55.389,521574
0.532,0.017,-0.908,-33.847,264.153,-54.687,522861
0.548,0.016,-0.919,-35.374,263.847,-54.305,524148
0.549,0.016,-0.906,-36.366,263.557,-54.046,525436
0.555,0.010,-0.909,-38.244,263.221,-53.557,526723
0.557,0.010,-0.909,-39.679,262.870,-53.221,528010
0.569,0.019,-0.909,-40.840,262.580,-52.840,529297
0.569,0.018,-0.918,-42.870,262.092,-52.473,530594
0.572,0.019,-0.912,-43.817,261.725,-52.015,531881
0.569,0.020,-0.909,-45.160,261.466,-51.603,533168
0.574,0.023,-0.917,-46.870,261.328,-51.237,534455
0.587,0.022,-0.905,-47.542,261.298,-50.611,535742
0.582,0.027,-0.914,-49.038,261.023,-50.061,537029
0.580,0.024,-0.912,-50.611,260.885,-49.527,538316
0.589,0.029,-0.917,-51.649,260.916,-48.916,539603
0.596,0.027,-0.916,-53.573,260.519,-48.198,540898
0.603,0.028,-0.916,-54.626,260.244,-47.466,542185
0.606,0.027,-0.912,-55.725,259.664,-46.809,543472
0.616,0.022,-0.907,-57.649,259.206,-46.076,544759
0.633,0.024,-0.913,-58.351,258.855,-45.267,546046
0.641,0.019,-0.909,-59.466,258.198,-44.412,547333
0.639,0.024,-0.912,-61.252,257.099,-43.221,548620
0.648,0.020,-0.911,-61.786,256.336,-42.275,549916
0.671,0.024,-0.912,-63.389,255.679,-41.466,551203
0.685,0.026,-0.903,-64.473,254.366,-40.855,552490
0.690,0.026,-0.913,-65.221,252.992,-40.076,553777
0.715,0.027,-0.903,-67.008,251.588,-39.359,555064
0.719,0.030,-0.906,-67.710,250.397,-38.916,556351
0.726,0.028,-0.896,-68.275,249.206,-38.122,557638
0.734,0.037,-0.884,-69.802,248.153,-37.313,558925
0.740,0.039,-0.886,-70.244,247.008,-36.702,560221
0.743,0.037,-0.883,-71.069,245.969,-35.939,561508
0.749,0.041,-0.872,-72.366,244.824,-35.313,562795
0.754,0.065,-0.873,-72.382,243.832,-34.626,564082
0.751,0.065,-0.859,-73.359,242.794,-34.275,565370
0.750,0.072,-0.857,-74.015,241.832,-33.817,566657
0.750,0.078,-0.853,-74.137,240.458,-33.176,567944
0.748,0.083,-0.843,-75.115,239.405,-32.794,569231
0.750,0.089,-0.836,-75.511,238.733,-32.092,570527
0.746,0.093,-0.830,-75.802,238.153,-31.985,571814
0.740,0.105,-0.821,-76.733,237.756,-31.817,573101
0.744,0.101,-0.819,-76.611,237.328,-31.542,574388
0.744,0.107,-0.809,-77.099,237.435,-31.053,575674
0.741,0.113,-0.802,-77.679,237.649,-30.824,576961
0.732,0.114,-0.802,-77.542,237.740,-30.565,578248
0.736,0.117,-0.792,-78.015,238.305,-30.244,579535
0.734,0.116,-0.790,-78.290,239.053,-30.046,580822
0.730,0.128,-0.783,-78.336,239.924,-29.954,582109
0.726,0.130,-0.777,-78.840,240.672,-29.832,583396
0.727,0.130,-0.767,-79.206,242.046,-29.573,584683
0.723,0.130,-0.761,-79.481,243.374,-29.756,585970
0.720,0.128,-0.750,-80.015,244.611,-30.046,587257
0.717,0.127,-0.757,-80.366,245.969,-30.168,588544
0.727,0.122,-0.751,-80.702,247.328,-30.305,589831
0.719,0.135,-0.732,-81.206,248.855,-30.626,591127
0.724,0.139,-0.715,-81.145,250.565,-30.840,592414
0.723,0.151,-0.717,-81.099,252.107,-31.008,593701
0.723,0.151,-0.718,-81.603,253.664,-31.313,594989
0.725,0.156,-0.706,-81.527,255.298,-31.511,596276
0.723,0.157,-0.699,-81.664,257.237,-31.740,597563
0.729,0.165,-0.698,-81.863,258.763,-31.908,598850
0.735,0.169,-0.696,-81.496,260.397,-31.985,600136
0.744,0.170,-0.691,-81.374,262.229,-32.214,601423
0.744,0.178,-0.681,-80.885,264.015,-32.550,602710
0.746,0.185,-0.678,-80.641,265.374,-32.809,603997
0.760,0.185,-0.675,-80.580,266.763,-32.992,605285
0.763,0.195,-0.664,-80.244,268.443,-33.481,606572
0.760,0.195,-0.654,-79.664,269.481,-33.634,607859
0.775,0.212,-0.649,-79.130,270.901,-33.634,609146
0.781,0.209,-0.644,-78.504,272.519,-33.832,610434
0.793,0.213,-0.643,-78.092,273.710,-34.122,611721
0.808,0.221,-0.632,-77.710,274.733,-34.290,613008
0.812,0.227,-0.629,-77.023,275.557,-34.351,614295
0.823,0.225,-0.625,-76.366,276.321,-34.595,615583
0.827,0.228,-0.615,-75.710,277.130,-34.885,616870
0.848,0.226,-0.620,-75.267,277.420,-34.992,618157
0.856,0.229,-0.622,-74.855,277.573,-34.901,619444
0.861,0.234,-0.618,-74.214,277.298,-34.870,620731
0.866,0.231,-0.604,-73.847,277.252,-34.824,622018
0.871,0.233,-0.592,-73.313,276.916,-34.397,623305
0.877,0.239,-0.590,-72.305,276.412,-34.000,624592
0.883,0.238,-0.572,-71.573,275.863,-33.313,625879
0.894,0.243,-0.559,-70.489,275.405,-32.580,627166
0.900,0.243,-0.551,-69.053,275.145,-31.740,628453
0.905,0.239,-0.548,-68.183,274.519,-30.779,629740
0.922,0.237,-0.534,-66.901,273.878,-29.725,631028
0.936,0.238,-0.524,-65.832,273.221,-28.641,632315
0.935,0.231,-0.532,-65.160,272.626,-27.481,633602
0.936,0.228,-0.525,-64.000,271.847,-26.275,634889
0.958,0.228,-0.508,-63.008,271.115,-24.977,636176
0.963,0.226,-0.506,-62.137,270.198,-23.756,637463
0.966,0.234,-0.491,-61.130,269.466,-22.382,638750
0.974,0.224,-0.479,-60.351,268.748,-21.084,640037
0.972,0.233,-0.479,-59.496,268.061,-19.802,641324
0.978,0.236,-0.473,-58.198,267.282,-18.305,642611
