acc_x,acc_y,acc_z,gyro_x,gyro_y,gyro_z,time
0.374,-0.059,-1.085,-0.489,5.466,0.550,0
0.383,-0.060,-1.084,-0.550,4.290,0.580,4053
0.386,-0.068,-1.083,-0.336,3.053,0.656,8068
0.384,-0.069,-1.084,-0.702,2.000,0.244,12079
0.384,-0.068,-1.092,-1.008,0.672,-0.031,16091
0.387,-0.071,-1.086,-0.962,-0.809,-0.489,20102
0.379,-0.069,-1.095,-1.450,-1.298,-0.656,24113
0.381,-0.068,-1.086,-1.832,-1.985,-1.053,28125
0.377,-0.066,-1.092,-2.275,-2.321,-1.267,32135
0.383,-0.065,-1.091,-2.427,-2.702,-1.557,36146
0.378,-0.069,-1.100,-2.641,-2.473,-1.664,40158
0.371,-0.061,-1.095,-2.931,-2.229,-1.863,44169
0.376,-0.062,-1.084,-2.855,-2.061,-1.924,48179
0.366,-0.063,-1.092,-2.733,-1.924,-2.168,52190
0.366,-0.055,-1.086,-2.443,-2.046,-1.969,56201
0.355,-0.052,-1.087,-2.244,-2.137,-1.863,60212
0.362,-0.053,-1.088,-2.015,-1.802,-1.740,64223
0.349,-0.050,-1.083,-1.649,-1.374,-1.985,68234
0.357,-0.054,-1.094,-1.084,-0.718,-1.588,72245
0.357,-0.051,-1.093,-0.794,0.336,-1.420,76256
0.362,-0.048,-1.089,-0.290,1.206,-1.145,80268
0.363,-0.051,-1.095,0.229,1.328,-0.794,84279
0.360,-0.049,-1.087,0.656,1.634,-0.809,88290
0.359,-0.059,-1.090,1.145,1.695,-0.458,92301
0.358,-0.058,-1.092,1.344,1.924,-0.366,96312
0.357,-0.062,-1.099,1.511,1.969,-0.427,100323
0.350,-0.062,-1.098,1.527,2.244,-0.275,104334
0.358,-0.075,-1.103,1.435,2.321,-0.168,108345
0.365,-0.069,-1.107,0.947,2.580,-0.015,112357
0.366,-0.077,-1.112,0.473,2.550,-0.015,116368
0.367,-0.077,-1.107,-0.183,2.870,-0.214,120379
0.378,-0.078,-1.103,-0.840,3.649,-0.504,124391
0.376,-0.088,-1.107,-1.939,3.328,-0.473,128401
0.381,-0.078,-1.111,-2.229,2.137,-0.473,132412
0.378,-0.078,-1.107,-2.718,0.916,-0.809,136423
0.382,-0.072,-1.105,-2.992,-0.229,-0.931,140435
0.373,-0.070,-1.106,-3.053,-1.023,-1.176,144446
0.379,-0.070,-1.104,-3.221,-0.992,-1.450,148456
0.369,-0.072,-1.106,-3.282,-1.221,-1.435,152467
0.369,-0.066,-1.112,-3.282,-1.603,-1.405,156478
0.368,-0.064,-1.098,-3.053,-1.252,-1.542,160489
0.368,-0.065,-1.101,-2.855,-0.718,-1.481,164500
0.362,-0.058,-1.101,-2.626,-0.275,-1.511,168511
0.359,-0.053,-1.099,-2.321,0.031,-1.832,172522
0.361,-0.056,-1.102,-2.290,0.290,-1.389,176533
0.356,-0.065,-1.113,-1.893,0.550,-1.588,180544
0.356,-0.071,-1.093,-1.649,1.145,-1.542,184555
0.354,-0.057,-1.099,-1.618,1.511,-1.802,188565
0.359,-0.060,-1.108,-1.542,2.458,-1.939,192577
0.364,-0.058,-1.111,-1.573,3.542,-1.679,196588
0.370,-0.059,-1.104,-1.435,3.389,-1.832,200599
0.366,-0.063,-1.101,-1.679,3.664,-1.924,204611
0.369,-0.060,-1.103,-1.802,4.092,-2.092,208622
0.371,-0.068,-1.093,-2.168,3.954,-2.122,212642
0.370,-0.065,-1.098,-2.260,3.145,-2.015,216653
0.371,-0.061,-1.101,-2.656,1.740,-2.107,220664
0.375,-0.071,-1.104,-2.763,0.977,-1.985,224675
0.376,-0.069,-1.107,-2.947,0.595,-1.954,228686
0.385,-0.071,-1.104,-3.145,-0.214,-2.015,232704
0.377,-0.065,-1.095,-3.573,-1.282,-2.107,236715
0.375,-0.076,-1.112,-3.878,-2.412,-2.122,240726
0.375,-0.067,-1.103,-4.168,-2.794,-2.244,244737
0.365,-0.066,-1.111,-4.214,-3.038,-2.351,248748
0.365,-0.062,-1.101,-4.305,-3.389,-2.427,252759
0.360,-0.062,-1.103,-4.137,-4.122,-2.305,256770
0.358,-0.060,-1.107,-3.802,-4.000,-2.641,260781
0.358,-0.056,-1.103,-3.542,-3.405,-2.885,264792
0.354,-0.061,-1.104,-3.069,-1.710,-3.176,268798
0.354,-0.058,-1.104,-2.794,-0.412,-3.130,272810
0.351,-0.052,-1.101,-2.427,0.641,-3.084,276820
0.353,-0.062,-1.099,-2.214,1.710,-2.901,280832
0.361,-0.057,-1.104,-1.832,2.198,-2.931,284843
0.356,-0.064,-1.109,-1.740,2.763,-2.824,288855
0.363,-0.059,-1.099,-1.557,3.099,-2.504,292865
0.372,-0.070,-1.108,-1.740,3.359,-2.489,296876
0.373,-0.067,-1.101,-1.771,3.130,-2.473,300887
0.363,-0.071,-1.110,-2.031,2.031,-2.168,304898
0.363,-0.068,-1.110,-2.427,1.725,-2.260,308910
0.369,-0.068,-1.107,-2.809,1.176,-2.458,312925
0.369,-0.070,-1.108,-3.267,0.626,-2.427,316936
0.372,-0.076,-1.105,-3.725,0.290,-2.550,320948
0.367,-0.074,-1.106,-4.244,0.092,-2.550,324959
0.372,-0.072,-1.098,-4.336,-0.198,-2.702,328970
0.364,-0.069,-1.111,-4.840,-0.366,-3.038,332991
0.368,-0.072,-1.102,-5.176,-0.611,-3.237,337002
0.370,-0.058,-1.111,-5.115,-0.748,-3.130,341013
0.366,-0.061,-1.104,-5.115,-1.008,-3.374,345024
0.367,-0.057,-1.113,-4.901,-0.992,-3.221,349035
0.366,-0.062,-1.099,-5.008,-1.099,-3.237,353056
0.367,-0.066,-1.097,-4.840,-1.466,-2.901,357067
0.364,-0.060,-1.109,-4.656,-1.298,-2.718,361078
0.362,-0.057,-1.104,-4.565,-1.420,-2.672,365090
0.357,-0.056,-1.108,-4.168,-1.481,-2.092,369101
0.355,-0.049,-1.104,-4.031,-1.344,-2.275,373111
0.359,-0.061,-1.106,-3.847,-1.145,-2.061,377122
0.358,-0.064,-1.099,-3.832,-0.962,-2.092,381133
0.349,-0.058,-1.096,-3.664,-0.458,-2.153,385144
0.343,-0.057,-1.104,-3.588,0.000,-2.183,389155
0.342,-0.057,-1.094,-3.359,0.702,-2.122,393165
0.343,-0.057,-1.099,-3.389,1.527,-2.031,397176
0.348,-0.054,-1.091,-3.435,2.794,-2.137,401187
0.349,-0.061,-1.094,-3.374,4.092,-2.107,405199
0.357,-0.057,-1.104,-3.313,4.183,-2.076,409210
0.352,-0.058,-1.085,-3.252,4.656,-2.015,413231
0.365,-0.062,-1.094,-3.420,5.435,-2.076,417242
0.368,-0.062,-1.100,-3.710,5.679,-1.908,421254
0.371,-0.060,-1.094,-4.000,4.916,-1.878,425265
0.376,-0.053,-1.101,-4.183,3.588,-1.679,429276
0.375,-0.060,-1.108,-4.443,2.611,-1.603,433297
0.375,-0.062,-1.099,-4.794,1.176,-1.405,437308
0.365,-0.058,-1.105,-5.038,-0.412,-1.542,441319
0.368,-0.058,-1.099,-5.191,-1.160,-1.389,445330
0.367,-0.057,-1.098,-5.282,-1.847,-1.527,449341
0.358,-0.055,-1.099,-5.573,-2.672,-1.527,453353
0.358,-0.050,-1.107,-5.450,-3.450,-1.267,457364
0.355,-0.051,-1.103,-5.359,-3.313,-1.344,461375
0.354,-0.040,-1.103,-4.824,-2.763,-1.450,465386
0.340,-0.052,-1.103,-4.824,-1.176,-1.359,469397
0.340,-0.051,-1.101,-4.412,-0.977,-1.221,473409
0.335,-0.050,-1.112,-4.198,0.763,-1.191,477419
0.333,-0.051,-1.115,-4.122,2.076,-1.099,481430
0.326,-0.052,-1.109,-3.298,3.099,-0.885,485442
0.325,-0.052,-1.114,-3.038,5.176,-0.763,489453
0.332,-0.055,-1.114,-3.084,5.740,-0.702,493464
0.329,-0.066,-1.120,-3.160,6.718,-0.641,497475
0.337,-0.083,-1.127,-3.679,6.931,-0.824,501487
0.334,-0.086,-1.118,-4.168,7.573,-0.626,505498
0.341,-0.086,-1.127,-4.702,7.130,-0.519,509509
0.337,-0.087,-1.130,-5.481,6.229,-0.260,513520
0.337,-0.078,-1.124,-5.740,5.405,-0.168,517530
0.340,-0.081,-1.129,-6.305,4.702,-0.137,521541
0.332,-0.081,-1.141,-6.626,3.603,-0.031,525552
0.328,-0.082,-1.132,-6.779,2.443,-0.412,529563
0.318,-0.076,-1.149,-6.794,1.817,-0.275,533583
0.313,-0.074,-1.145,-6.809,1.374,-0.107,537594
0.308,-0.073,-1.148,-6.641,1.237,0.198,541606
0.303,-0.068,-1.168,-6.534,0.763,0.656,545617
0.287,-0.065,-1.178,-6.656,0.733,0.809,549628
0.277,-0.065,-1.178,-6.748,1.115,0.733,553649
0.268,-0.073,-1.190,-6.855,1.603,0.641,557661
0.259,-0.080,-1.197,-7.160,1.863,0.809,561671
0.244,-0.083,-1.194,-7.603,2.183,0.855,565682
0.240,-0.090,-1.219,-8.198,2.504,1.252,569693
0.230,-0.099,-1.229,-8.748,3.008,1.176,573713
0.220,-0.104,-1.233,-9.588,3.206,1.130,577724
0.209,-0.120,-1.242,-10.107,3.420,0.977,581736
0.187,-0.125,-1.247,-10.687,3.237,0.733,585746
0.186,-0.125,-1.248,-11.603,3.389,0.137,589757
0.165,-0.130,-1.248,-11.511,2.260,-0.122,593769
0.136,-0.131,-1.264,-10.824,2.061,-0.656,597780
0.126,-0.147,-1.288,-11.313,1.053,-0.748,601791
0.111,-0.133,-1.292,-10.977,0.504,-1.618,605802
0.103,-0.136,-1.295,-10.794,1.985,-2.595,609814
0.077,-0.144,-1.312,-10.992,1.023,-3.649,613828
0.056,-0.138,-1.314,-11.084,2.321,-4.489,617840
0.038,-0.149,-1.329,-11.221,3.664,-5.435,621850
0.016,-0.147,-1.338,-10.977,5.084,-6.443,625861
-0.003,-0.156,-1.336,-10.962,7.298,-7.435,629873
-0.013,-0.150,-1.352,-11.145,8.275,-8.076,633892
-0.013,-0.151,-1.345,-11.176,10.443,-8.382,637903
-0.016,-0.157,-1.355,-11.252,9.832,-8.748,641914
-0.014,-0.151,-1.354,-11.603,11.466,-8.489,645925
-0.017,-0.147,-1.358,-11.771,11.817,-8.000,649936
-0.033,-0.144,-1.369,-12.000,9.786,-7.878,653947
-0.045,-0.143,-1.385,-12.748,6.473,-7.618,657958
-0.053,-0.151,-1.373,-13.053,0.962,-7.863,661969
-0.059,-0.139,-1.375,-13.160,-1.863,-8.382,665980
-0.060,-0.137,-1.370,-13.237,-3.435,-8.962,669991
-0.078,-0.137,-1.372,-13.237,-7.802,-9.786,674002
-0.081,-0.149,-1.375,-13.710,-12.412,-11.756,678014
-0.098,-0.160,-1.370,-14.076,-14.824,-13.374,682025
-0.107,-0.168,-1.364,-14.565,-15.176,-14.885,686035
-0.109,-0.169,-1.356,-14.840,-13.221,-15.954,690046
-0.087,-0.170,-1.350,-15.191,-12.870,-16.718,694058
-0.077,-0.172,-1.333,-15.557,-11.679,-17.679,698070
-0.068,-0.181,-1.325,-15.573,-11.802,-18.412,702082
-0.054,-0.186,-1.328,-15.435,-11.267,-18.656,706093
-0.046,-0.186,-1.311,-15.160,-10.565,-18.656,710105
-0.044,-0.187,-1.312,-14.840,-12.779,-18.443,714116
-0.050,-0.193,-1.279,-14.366,-14.092,-18.153,718127
-0.062,-0.190,-1.275,-13.710,-16.443,-17.573,722138
-0.073,-0.203,-1.289,-13.176,-21.802,-16.992,726149
-0.076,-0.213,-1.269,-13.847,-20.855,-15.908,730160
-0.068,-0.223,-1.266,-14.534,-20.076,-14.534,734171
-0.048,-0.235,-1.251,-15.786,-14.260,-12.321,738183
-0.014,-0.246,-1.234,-17.908,-7.328,-9.771,742194
-0.001,-0.256,-1.237,-20.244,-4.718,-6.962,746206
0.029,-0.250,-1.227,-22.397,-2.260,-3.924,750217
0.060,-0.245,-1.207,-24.962,7.237,-0.229,754228
0.080,-0.228,-1.211,-26.092,10.076,3.985,758240
0.098,-0.224,-1.220,-27.038,8.183,8.305,762252
0.113,-0.213,-1.228,-28.305,3.084,13.053,766262
0.119,-0.194,-1.216,-29.252,-3.893,18.046,770273
0.132,-0.190,-1.204,-30.458,-7.466,22.794,774284
0.154,-0.186,-1.202,-31.634,-14.046,27.802,778296
0.175,-0.173,-1.192,-32.473,-21.679,32.626,782307
0.193,-0.166,-1.182,-33.328,-25.908,36.626,786318
0.208,-0.153,-1.176,-33.420,-29.267,39.511,790329
0.212,-0.140,-1.172,-33.649,-32.031,41.649,794340
0.216,-0.112,-1.156,-33.115,-35.985,43.893,798354
0.218,-0.094,-1.152,-32.458,-38.336,45.389,802365
0.226,-0.086,-1.138,-31.496,-38.198,45.878,806376
0.246,-0.078,-1.141,-30.366,-39.237,45.771,810387
0.255,-0.074,-1.132,-29.084,-41.145,45.924,814398
0.261,-0.070,-1.126,-27.221,-42.397,45.191,818409
0.270,-0.065,-1.118,-25.328,-41.893,44.305,822420
0.278,-0.047,-1.102,-23.038,-41.527,43.328,826432
0.277,-0.046,-1.097,-21.221,-40.550,44.137,830443
0.297,-0.056,-1.085,-18.962,-35.954,44.718,834454
0.335,-0.051,-1.066,-17.160,-30.840,45.511,838465
0.364,-0.058,-1.072,-16.092,-28.122,46.656,842476
0.400,-0.063,-1.066,-16.183,-22.061,47.679,846487
0.435,-0.073,-1.063,-16.962,-16.550,49.069,850498
0.485,-0.077,-1.069,-17.771,-12.198,49.893,854509
0.529,-0.080,-1.061,-19.435,-10.779,53.023,858521
0.558,-0.088,-1.072,-21.237,-16.962,60.443,862532
0.573,-0.079,-1.057,-23.008,-25.267,65.603,866543
0.566,-0.068,-1.038,-24.076,-33.985,68.443,870554
0.567,-0.043,-1.028,-24.931,-45.985,70.290,874565
0.557,-0.013,-1.010,-24.687,-57.008,71.725,878576
0.541,0.013,-1.013,-23.740,-68.061,71.863,882588
0.519,0.039,-1.002,-22.336,-83.176,71.939,886598
0.500,0.050,-0.972,-21.557,-84.031,73.252,890609
0.479,0.072,-0.979,-20.015,-86.229,75.115,894620
0.447,0.075,-0.956,-19.466,-83.282,71.802,898632
0.442,0.075,-0.940,-18.046,-75.985,74.519,902652
0.430,0.074,-0.936,-16.366,-65.359,80.947,906663
0.402,0.092,-0.925,-16.198,-48.885,78.550,910675
0.389,0.097,-0.921,-17.145,-33.435,69.450,914686
0.440,0.092,-0.898,-18.382,-14.550,59.252,918697
0.500,0.074,-0.885,-13.863,1.221,56.489,922708
0.533,0.064,-0.878,-7.542,16.122,54.366,926719
0.547,0.066,-0.889,-1.344,28.901,50.397,930730
0.528,0.053,-0.943,-6.260,35.496,48.076,934741
0.525,0.066,-0.963,-6.931,28.458,32.366,938748
0.556,0.074,-0.986,-6.458,13.985,32.290,942759
0.681,0.017,-0.955,-7.038,16.214,54.427,946770
0.672,0.027,-0.965,-7.282,7.099,52.855,950781
0.695,0.004,-0.983,-7.649,-13.435,52.916,954792
0.742,-0.010,-0.959,-9.267,-20.183,55.069,958799
0.749,-0.013,-0.962,-10.229,-32.031,56.489,962810
0.741,-0.005,-0.966,-11.359,-43.802,57.435,966822
0.721,-0.008,-0.969,-12.198,-49.908,59.221,970833
0.685,0.013,-1.006,-12.046,-63.710,59.130,974844
0.661,0.019,-0.997,-11.588,-70.901,59.420,978856
0.632,0.031,-1.008,-10.748,-75.298,58.763,982866
0.608,0.043,-1.010,-9.496,-80.382,57.206,986877
0.593,0.034,-0.987,-8.260,-77.130,57.878,990888
0.556,0.040,-0.999,-7.389,-73.939,55.939,994899
0.524,0.036,-1.010,-6.824,-68.046,53.221,998911
0.493,0.027,-1.012,-6.397,-56.519,50.183,1002921
0.488,0.017,-1.011,-5.954,-44.137,50.870,1006932
0.454,0.012,-1.018,-6.427,-28.458,47.618,1010943
0.432,0.009,-1.019,-7.038,-13.420,40.382,1014954
0.452,-0.004,-1.016,-7.817,3.588,37.786,1018965
0.452,-0.005,-1.037,-8.931,18.947,35.328,1022985
0.465,-0.008,-1.031,-10.153,34.870,33.191,1026996
0.478,-0.006,-1.030,-11.649,48.412,31.664,1031007
0.485,-0.008,-1.035,-13.038,56.901,29.878,1035018
0.509,-0.017,-1.039,-14.992,63.573,27.344,1039029
0.542,-0.023,-1.048,-16.580,65.893,25.191,1043050
0.570,-0.021,-1.043,-18.611,66.595,23.374,1047061
0.606,-0.023,-1.044,-20.565,64.794,24.489,1051072
0.613,0.003,-1.055,-21.573,56.885,26.519,1055084
0.628,0.012,-1.049,-22.534,50.076,25.573,1059095
0.631,0.028,-1.058,-23.420,39.435,24.031,1063106
0.626,0.043,-1.061,-23.725,28.137,22.489,1067118
0.614,0.047,-1.063,-23.496,13.573,19.939,1071129
0.602,0.056,-1.045,-23.008,4.977,18.687,1075141
0.578,0.071,-1.063,-21.588,-8.779,15.832,1079152
0.551,0.082,-1.053,-20.046,-19.573,13.527,1083162
0.527,0.093,-1.060,-18.336,-26.061,11.740,1087173
0.513,0.088,-1.038,-16.366,-30.672,11.206,1091184
0.497,0.090,-1.042,-14.840,-28.168,9.267,1095195
0.496,0.076,-1.050,-13.771,-25.786,9.084,1099206
0.459,0.071,-1.045,-13.130,-22.061,5.725,1103226
0.445,0.066,-1.054,-12.443,-15.786,4.718,1107237
0.428,0.063,-1.059,-11.924,-9.405,3.389,1111248
0.414,0.059,-1.059,-11.405,-4.290,2.061,1115259
0.404,0.055,-1.075,-11.084,-0.794,1.191,1119270
0.404,0.055,-1.080,-10.763,2.931,0.366,1123291
0.395,0.043,-1.096,-10.977,3.664,-0.779,1127302
0.398,0.034,-1.098,-11.405,4.122,-1.603,1131313
0.394,0.032,-1.098,-11.847,1.802,-2.580,1135324
0.377,0.029,-1.105,-12.321,1.115,-3.267,1139335
0.374,0.032,-1.107,-12.458,1.924,-3.237,1143347
0.358,0.029,-1.113,-12.809,-0.198,-3.679,1147358
0.359,0.044,-1.114,-13.053,-0.046,-3.389,1151369
0.355,0.050,-1.115,-12.794,1.206,-2.641,1155380
0.362,0.051,-1.102,-13.053,4.504,-1.969,1159391
0.355,0.055,-1.100,-13.160,7.206,-1.221,1163403
0.363,0.056,-1.110,-13.344,7.313,-0.885,1167413
0.369,0.050,-1.100,-13.420,9.542,-0.076,1171424
0.365,0.056,-1.099,-13.435,11.802,0.550,1175435
0.364,0.062,-1.113,-13.282,11.939,0.687,1179446
0.367,0.061,-1.123,-13.206,9.634,0.550,1183457
0.365,0.070,-1.118,-12.901,6.122,-0.092,1187468
0.356,0.065,-1.131,-12.260,3.176,-0.733,1191479
0.354,0.082,-1.131,-11.832,0.382,-1.496,1195490
0.360,0.077,-1.125,-10.962,-3.802,-2.458,1199501
0.354,0.080,-1.124,-10.015,-5.618,-3.221,1203511
0.351,0.085,-1.127,-9.573,-8.611,-4.153,1207522
0.346,0.070,-1.125,-8.962,-11.099,-4.901,1211533
0.342,0.072,-1.129,-8.595,-12.916,-5.771,1215544
0.334,0.068,-1.137,-8.397,-15.115,-6.458,1219555
0.319,0.059,-1.138,-8.153,-15.527,-6.672,1223566
0.310,0.059,-1.132,-8.412,-16.244,-6.748,1227577
0.296,0.058,-1.126,-8.626,-16.809,-6.534,1231588
0.293,0.053,-1.133,-8.855,-16.382,-6.275,1235599
0.288,0.046,-1.122,-9.481,-15.496,-5.756,1239610
0.281,0.043,-1.125,-9.725,-14.550,-5.267,1243630
0.267,0.043,-1.122,-10.092,-13.435,-4.870,1247641
0.251,0.050,-1.128,-10.336,-12.000,-3.985,1251653
0.246,0.043,-1.121,-10.412,-10.443,-3.053,1255663
0.239,0.052,-1.116,-10.061,-8.611,-2.351,1259674
0.241,0.058,-1.123,-9.511,-7.008,-1.847,1263695
0.223,0.066,-1.115,-9.389,-5.130,-1.527,1267706
0.229,0.063,-1.126,-9.206,-2.855,-1.466,1271717
0.229,0.062,-1.110,-9.221,-0.260,-2.885,1275728
0.237,0.051,-1.128,-9.374,0.702,-2.931,1279739
0.242,0.045,-1.127,-9.603,3.359,-2.824,1283751
0.241,0.040,-1.125,-9.634,4.550,-2.779,1287761
0.244,0.036,-1.141,-9.908,4.748,-2.565,1291772
0.248,0.037,-1.140,-10.458,4.504,-2.321,1295783
0.240,0.038,-1.142,-10.580,2.779,-2.779,1299794
0.246,0.036,-1.140,-10.794,0.809,-2.855,1303805
0.241,0.034,-1.138,-10.595,-1.237,-2.870,1307815
0.237,0.043,-1.123,-10.626,-1.954,-2.656,1311826
0.228,0.047,-1.136,-10.550,-3.649,-2.809,1315837
0.224,0.047,-1.129,-9.985,-6.443,-3.115,1319848
0.222,0.049,-1.123,-9.695,-7.496,-2.687,1323868
0.218,0.043,-1.111,-9.344,-7.344,-2.458,1327880
0.207,0.042,-1.111,-8.885,-4.947,-3.130,1331891
0.216,0.044,-1.112,-8.321,-2.290,-3.344,1335902
0.233,0.036,-1.109,-8.076,1.008,-3.359,1339916
0.231,0.036,-1.115,-8.168,4.534,-3.542,1343927
0.238,0.032,-1.109,-8.198,6.107,-3.496,1347938
0.243,0.036,-1.094,-8.611,11.344,-3.008,1351949
0.240,0.034,-1.110,-8.824,11.588,-3.038,1355960
0.245,0.032,-1.111,-8.962,10.763,-2.794,1359971
0.246,0.031,-1.123,-8.824,9.191,-2.763,1363982
0.252,0.030,-1.123,-8.885,5.832,-2.916,1367994
0.250,0.037,-1.124,-8.718,3.130,-2.809,1372005
0.249,0.036,-1.125,-8.733,-1.069,-3.038,1376017
0.255,0.033,-1.121,-8.733,-3.847,-2.947,1380028
0.256,0.031,-1.108,-8.779,-5.893,-2.809,1384039
0.251,0.030,-1.101,-8.687,-9.847,-2.840,1388051
0.241,0.029,-1.105,-8.840,-11.359,-2.427,1392062
0.229,0.028,-1.103,-8.550,-13.145,-2.336,1396074
0.234,0.034,-1.104,-8.351,-13.573,-1.878,1400085
0.228,0.036,-1.100,-8.519,-13.237,-1.313,1404096
0.227,0.036,-1.101,-8.305,-13.389,-1.237,1408107
0.220,0.033,-1.097,-8.046,-12.519,-0.351,1412118
0.218,0.042,-1.088,-7.939,-11.145,0.046,1416129
0.208,0.036,-1.088,-7.679,-9.573,0.794,1420140
0.204,0.036,-1.090,-7.145,-8.931,1.847,1424151
0.208,0.037,-1.090,-6.840,-6.870,2.916,1428160
0.212,0.034,-1.101,-6.595,-5.954,3.802,1432171
0.224,0.035,-1.102,-6.534,-4.580,4.565,1436182
0.218,0.037,-1.108,-6.000,-4.122,5.649,1440194
0.219,0.035,-1.113,-5.908,-3.573,6.931,1444205
0.231,0.030,-1.098,-5.969,-2.305,8.565,1448218
0.236,0.031,-1.105,-6.031,-2.076,9.466,1452229
0.247,0.030,-1.112,-6.229,-2.366,9.023,1456240
0.247,0.031,-1.123,-6.366,-2.992,8.763,1460251
0.237,0.033,-1.125,-6.580,-4.626,8.412,1464262
0.227,0.024,-1.127,-6.519,-5.588,8.107,1468274
0.211,0.037,-1.125,-6.168,-6.458,7.466,1472286
0.208,0.039,-1.122,-5.802,-7.802,6.427,1476297
0.205,0.035,-1.119,-5.191,-10.504,4.901,1480309
0.220,0.032,-1.114,-4.672,-9.695,4.962,1484320
0.217,0.043,-1.122,-4.168,-8.382,3.847,1488331
0.217,0.045,-1.129,-3.756,-4.382,0.794,1492343
0.219,0.044,-1.123,-3.435,-1.023,-1.267,1496353
0.212,0.042,-1.128,-3.252,1.740,-2.748,1500364
0.209,0.045,-1.118,-3.069,2.718,-4.000,1504375
0.211,0.045,-1.128,-3.115,7.053,-4.473,1508386
0.223,0.041,-1.129,-3.053,8.977,-5.130,1512398
0.235,0.041,-1.125,-3.206,9.023,-5.313,1516409
0.233,0.039,-1.128,-3.435,8.290,-5.389,1520421
0.234,0.041,-1.138,-3.908,6.122,-5.237,1524432
0.226,0.042,-1.129,-4.153,3.908,-4.656,1528442
0.221,0.043,-1.135,-4.458,-0.443,-4.382,1532453
0.214,0.038,-1.129,-4.550,-3.450,-3.634,1536464
0.197,0.045,-1.133,-4.366,-7.282,-3.084,1540475
0.197,0.048,-1.134,-4.031,-11.588,-2.489,1544486
0.196,0.046,-1.129,-3.603,-12.092,-1.496,1548497
0.193,0.051,-1.123,-3.267,-12.550,-0.137,1552508
0.191,0.055,-1.121,-3.191,-9.008,0.901,1556519
0.184,0.048,-1.119,-3.298,-6.336,1.450,1560530
0.182,0.040,-1.124,-3.176,-3.221,2.076,1564541
0.187,0.041,-1.118,-3.206,1.069,2.458,1568549
0.182,0.047,-1.122,-3.252,3.359,2.305,1572560
0.201,0.046,-1.117,-3.130,7.710,2.580,1576571
0.199,0.048,-1.132,-3.267,11.328,2.687,1580582
0.203,0.051,-1.130,-3.176,11.481,2.198,1584593
0.206,0.057,-1.131,-3.145,12.244,1.817,1588604
0.208,0.059,-1.145,-2.916,11.145,0.840,1592615
0.211,0.051,-1.148,-2.656,10.031,-0.015,1596626
0.219,0.053,-1.148,-2.366,8.916,-1.069,1600638
0.224,0.047,-1.144,-1.954,6.519,-2.244,1604649
0.230,0.052,-1.145,-1.679,5.206,-3.160,1608660
0.229,0.045,-1.151,-1.649,3.985,-3.695,1612681
0.243,0.046,-1.151,-1.847,2.809,-4.473,1616692
0.238,0.044,-1.150,-1.908,1.542,-4.733,1620703
0.233,0.041,-1.150,-2.031,0.443,-4.824,1624714
0.230,0.045,-1.142,-2.336,-0.076,-4.809,1628726
0.223,0.042,-1.158,-2.229,-1.511,-4.763,1632741
0.216,0.043,-1.143,-2.290,-3.282,-4.626,1636752
0.211,0.036,-1.137,-2.290,-3.374,-4.198,1640763
0.208,0.042,-1.145,-2.244,-3.221,-4.031,1644775
0.214,0.043,-1.149,-2.046,-2.031,-3.588,1648786
0.212,0.029,-1.154,-2.107,-1.176,-2.931,1652797
0.208,0.036,-1.148,-2.137,-0.092,-2.427,1656808
0.216,0.041,-1.143,-2.153,1.328,-2.107,1660820
0.215,0.041,-1.142,-2.076,1.679,-1.985,1664831
0.222,0.041,-1.142,-2.153,3.527,-1.618,1668842
0.219,0.044,-1.149,-2.107,3.710,-1.649,1672852
0.216,0.036,-1.158,-1.969,3.115,-1.817,1676863
0.213,0.037,-1.160,-2.076,2.015,-2.336,1680874
0.210,0.035,-1.165,-2.305,0.031,-2.947,1684885
0.209,0.041,-1.165,-2.443,-0.534,-3.313,1688897
0.213,0.027,-1.163,-2.779,-1.084,-3.878,1692906
0.220,0.033,-1.167,-3.130,-1.069,-4.153,1696918
0.218,0.031,-1.171,-3.313,-1.908,-4.336,1700929
0.211,0.037,-1.158,-3.496,-2.153,-4.275,1704941
0.209,0.038,-1.159,-3.603,-1.893,-4.275,1708952
0.207,0.042,-1.154,-3.695,-1.023,-3.863,1712973
0.212,0.041,-1.148,-3.771,0.244,-3.588,1716984
0.225,0.043,-1.139,-3.496,1.573,-3.496,1720996
0.224,0.040,-1.158,-3.008,1.893,-3.588,1725007
0.230,0.046,-1.144,-2.779,3.359,-3.328,1729018
0.231,0.049,-1.146,-2.504,4.901,-3.374,1733039
0.232,0.053,-1.154,-2.061,4.275,-3.527,1737050
0.236,0.048,-1.146,-2.015,3.008,-3.557,1741061
0.237,0.049,-1.150,-1.908,0.168,-4.122,1745072
0.230,0.042,-1.139,-1.802,-2.061,-4.489,1749083
0.228,0.042,-1.146,-1.908,-3.969,-5.053,1753097
0.229,0.040,-1.146,-2.031,-4.733,-5.038,1757108
0.220,0.033,-1.156,-2.153,-7.939,-5.725,1761119
0.219,0.041,-1.142,-2.168,-9.344,-5.969,1765130
0.212,0.037,-1.142,-2.565,-9.527,-6.031,1769141
0.201,0.032,-1.138,-2.748,-9.725,-6.122,1773151
0.187,0.033,-1.140,-3.206,-8.351,-6.076,1777162
0.186,0.034,-1.135,-3.298,-7.908,-5.908,1781173
0.182,0.037,-1.137,-3.603,-6.504,-5.649,1785184
0.171,0.039,-1.133,-3.618,-3.420,-4.977,1789195
0.176,0.042,-1.133,-3.908,-0.153,-3.649,1793215
0.176,0.048,-1.139,-3.847,3.954,-3.267,1797226
0.181,0.046,-1.132,-3.695,7.740,-3.466,1801237
0.187,0.050,-1.127,-3.557,10.580,-2.916,1805248
0.195,0.048,-1.125,-3.435,15.130,-2.595,1809259
0.193,0.052,-1.127,-3.191,16.656,-2.046,1813280
0.199,0.055,-1.132,-3.038,17.893,-1.695,1817291
0.210,0.052,-1.130,-2.947,17.466,-1.481,1821302
0.220,0.049,-1.133,-2.672,15.969,-1.115,1825313
0.230,0.051,-1.123,-2.595,14.901,-0.977,1829324
0.238,0.044,-1.135,-2.504,11.817,-1.282,1833342
0.245,0.049,-1.123,-2.290,8.046,-1.618,1837353
0.244,0.045,-1.126,-2.305,4.412,-1.878,1841365
0.250,0.040,-1.124,-2.382,0.015,-2.626,1845375
0.247,0.049,-1.116,-2.397,-2.824,-3.099,1849386
0.241,0.041,-1.128,-2.275,-6.183,-3.771,1853397
0.235,0.046,-1.131,-2.244,-10.962,-4.901,1857409
0.226,0.042,-1.130,-2.412,-12.412,-5.252,1861419
0.218,0.040,-1.133,-2.534,-14.137,-6.046,1865430
0.215,0.035,-1.126,-2.519,-12.840,-6.412,1869441
0.203,0.041,-1.129,-2.565,-11.878,-6.794,1873453
0.206,0.039,-1.125,-2.916,-11.099,-6.794,1877464
0.186,0.041,-1.123,-2.947,-8.702,-6.702,1881476
0.170,0.040,-1.131,-3.099,-5.924,-6.290,1885486
0.176,0.035,-1.122,-3.023,-2.458,-5.954,1889497
0.170,0.041,-1.121,-3.267,0.366,-5.573,1893508
0.174,0.036,-1.124,-3.298,3.756,-5.206,1897519
0.180,0.034,-1.124,-3.130,7.053,-4.885,1901531
0.176,0.044,-1.135,-2.840,9.298,-4.168,1905542
0.198,0.043,-1.128,-2.473,13.527,-2.962,1909553
0.196,0.044,-1.125,-2.137,15.740,-2.122,1913564
0.216,0.036,-1.124,-1.939,17.985,-1.527,1917575
0.237,0.039,-1.126,-1.649,18.550,-0.977,1921587
0.241,0.038,-1.122,-1.221,17.908,-1.115,1925598
0.251,0.034,-1.132,-1.206,17.160,-1.099,1929609
0.250,0.030,-1.134,-1.206,13.771,-1.817,1933629
0.255,0.034,-1.149,-1.176,8.947,-2.641,1937640
0.255,0.034,-1.144,-1.191,3.710,-3.679,1941651
0.257,0.042,-1.143,-1.053,-1.618,-4.733,1945662
0.251,0.040,-1.137,-1.466,-4.427,-5.618,1949673
0.232,0.044,-1.153,-1.328,-10.794,-6.748,1953694
0.221,0.038,-1.155,-1.679,-15.420,-7.786,1957705
0.207,0.040,-1.150,-2.015,-17.435,-8.382,1961717
0.208,0.034,-1.148,-2.397,-18.855,-8.519,1965728
0.192,0.042,-1.142,-2.763,-16.275,-8.351,1969739
0.188,0.041,-1.136,-2.947,-14.534,-7.725,1973751
0.182,0.039,-1.138,-3.603,-11.649,-6.840,1977761
0.175,0.044,-1.122,-3.771,-6.641,-6.000,1981772
0.171,0.044,-1.149,-3.847,-2.321,-4.611,1985783
0.168,0.050,-1.140,-3.954,0.519,-4.260,1989794
0.172,0.046,-1.137,-3.847,4.183,-3.328,1993805
0.173,0.046,-1.138,-3.527,6.947,-2.565,1997815
0.175,0.053,-1.144,-3.313,8.046,-1.939,2001826
