acc_x,acc_y,acc_z,gyro_x,gyro_y,gyro_z,time
0.315,-0.092,-1.102,-0.443,-1.023,-1.191,0
0.321,-0.088,-1.113,-0.183,-0.794,-1.328,4053
0.323,-0.090,-1.113,-0.061,-0.779,-1.176,8068
0.335,-0.088,-1.111,0.168,-0.519,-1.099,12080
0.345,-0.093,-1.123,0.076,0.000,-1.053,16091
0.341,-0.105,-1.126,-0.046,0.901,-0.931,20102
0.337,-0.108,-1.133,-0.107,0.336,-1.069,24113
0.343,-0.097,-1.128,-0.336,-0.427,-1.145,28123
0.331,-0.105,-1.125,-0.382,-1.634,-1.328,32134
0.333,-0.100,-1.133,-0.718,-2.504,-1.389,36145
0.331,-0.100,-1.131,-1.023,-2.290,-1.863,40156
0.336,-0.100,-1.129,-1.313,-1.939,-2.107,44167
0.337,-0.101,-1.125,-1.679,-2.794,-2.672,48178
0.320,-0.098,-1.127,-1.634,-3.191,-3.267,52189
0.327,-0.097,-1.115,-1.908,-1.573,-3.374,56200
0.316,-0.094,-1.126,-1.954,-0.183,-3.496,60211
0.323,-0.092,-1.114,-2.137,1.374,-3.710,64222
0.326,-0.092,-1.125,-2.321,2.076,-3.832,68233
0.324,-0.095,-1.125,-2.473,2.275,-4.076,72244
0.322,-0.099,-1.120,-2.458,2.412,-3.969,76255
0.331,-0.096,-1.125,-2.595,3.542,-4.122,80266
0.322,-0.091,-1.115,-2.611,3.664,-3.863,84277
0.330,-0.091,-1.123,-2.763,2.198,-3.924,88288
0.330,-0.086,-1.125,-2.824,1.053,-3.756,92300
0.330,-0.084,-1.115,-2.824,0.519,-3.878,96311
0.322,-0.083,-1.119,-2.626,0.183,-3.618,100323
0.328,-0.082,-1.117,-2.779,-0.397,-3.557,104334
0.324,-0.082,-1.117,-2.794,-0.427,-3.481,108345
0.324,-0.082,-1.125,-2.656,-0.641,-3.573,112357
0.312,-0.086,-1.112,-2.458,-0.718,-3.435,116367
0.321,-0.083,-1.123,-2.351,-0.580,-3.267,120378
0.315,-0.082,-1.114,-2.382,-0.748,-3.282,124389
0.312,-0.081,-1.125,-2.427,-0.580,-3.344,128400
0.309,-0.085,-1.118,-2.351,-0.153,-3.496,132411
0.305,-0.085,-1.111,-2.519,0.351,-3.420,136422
0.310,-0.084,-1.115,-2.443,1.252,-3.313,140433
0.311,-0.082,-1.112,-2.779,2.458,-3.710,144444
0.311,-0.084,-1.118,-2.931,3.206,-3.893,148455
0.318,-0.078,-1.099,-3.176,3.756,-4.000,152466
0.313,-0.082,-1.119,-3.206,3.908,-4.198,156477
0.317,-0.083,-1.120,-3.252,4.015,-4.183,160488
0.323,-0.079,-1.111,-3.573,4.397,-4.229,164499
0.324,-0.082,-1.107,-3.863,4.137,-4.321,168512
0.326,-0.087,-1.109,-3.954,2.870,-4.595,172522
0.323,-0.082,-1.120,-4.260,1.802,-4.733,176533
0.317,-0.078,-1.111,-4.626,1.405,-4.702,180545
0.322,-0.078,-1.109,-5.023,1.084,-4.626,184556
0.312,-0.079,-1.104,-5.282,0.809,-4.702,188566
0.311,-0.075,-1.101,-5.527,0.076,-4.672,192577
0.304,-0.076,-1.095,-5.618,-0.580,-4.855,196589
0.300,-0.064,-1.081,-5.542,-0.153,-4.504,200599
0.296,-0.070,-1.093,-5.267,-0.198,-4.366,204610
0.300,-0.066,-1.079,-5.038,0.061,-4.275,208621
0.299,-0.060,-1.088,-4.641,0.702,-4.137,212641
0.299,-0.061,-1.078,-4.382,1.420,-3.786,216652
0.295,-0.062,-1.082,-3.878,2.183,-3.710,220663
0.305,-0.060,-1.092,-3.405,2.855,-3.267,224674
0.297,-0.063,-1.080,-2.779,2.794,-2.870,228686
0.309,-0.056,-1.079,-2.260,2.656,-2.901,232704
0.309,-0.060,-1.079,-1.725,2.382,-2.290,236714
0.312,-0.062,-1.071,-1.328,2.229,-1.878,240725
0.311,-0.072,-1.084,-0.992,1.679,-1.557,244736
0.313,-0.075,-1.084,-0.626,1.359,-0.962,248747
0.314,-0.083,-1.082,-0.443,0.901,-0.550,252758
0.314,-0.083,-1.092,-0.290,0.580,-0.137,256769
0.318,-0.084,-1.090,-0.107,0.412,0.076,260780
0.317,-0.089,-1.096,0.260,0.336,0.168,264791
0.327,-0.087,-1.104,0.244,0.412,0.366,268798
0.321,-0.087,-1.109,0.412,0.733,0.427,272809
0.320,-0.100,-1.110,0.366,0.534,0.534,276820
0.320,-0.101,-1.114,0.198,0.458,0.061,280831
0.319,-0.099,-1.115,-0.122,0.153,-0.031,284842
0.316,-0.104,-1.109,-0.260,0.183,-0.397,288853
0.313,-0.099,-1.114,-0.473,0.580,-0.870,292864
0.318,-0.098,-1.109,-0.931,1.023,-1.008,296875
0.314,-0.097,-1.116,-1.145,1.527,-1.466,300886
0.318,-0.101,-1.128,-1.359,1.954,-1.618,304897
0.320,-0.101,-1.123,-1.664,2.473,-1.908,308908
0.322,-0.098,-1.120,-1.817,2.901,-2.076,312923
0.326,-0.101,-1.123,-1.924,3.756,-2.046,316934
0.323,-0.101,-1.129,-2.015,5.069,-2.031,320945
0.331,-0.101,-1.133,-2.168,4.626,-2.000,324956
0.334,-0.102,-1.123,-2.489,4.397,-2.000,328967
0.325,-0.099,-1.124,-2.244,2.962,-2.489,332986
0.330,-0.104,-1.131,-2.550,2.672,-2.214,336997
0.330,-0.099,-1.136,-3.038,1.176,-2.168,341008
0.325,-0.097,-1.121,-3.115,0.962,-2.412,345019
0.323,-0.095,-1.127,-3.023,0.794,-2.504,349030
0.322,-0.095,-1.130,-3.237,0.641,-2.550,353051
0.312,-0.095,-1.123,-3.405,0.382,-2.687,357062
0.313,-0.092,-1.123,-3.389,0.443,-2.824,361073
0.310,-0.097,-1.131,-3.496,0.885,-2.687,365084
0.312,-0.099,-1.131,-3.802,1.542,-2.687,369095
0.300,-0.092,-1.135,-3.939,1.954,-2.809,373107
0.305,-0.089,-1.136,-3.939,2.000,-2.595,377117
0.302,-0.085,-1.137,-3.969,2.031,-2.672,381128
0.304,-0.086,-1.135,-3.878,2.519,-2.916,385139
0.297,-0.083,-1.139,-3.634,2.931,-2.901,389150
0.294,-0.086,-1.140,-3.298,2.992,-3.069,393162
0.288,-0.090,-1.138,-3.481,3.282,-2.794,397173
0.293,-0.092,-1.138,-3.496,3.374,-2.809,401184
0.298,-0.098,-1.151,-3.664,3.802,-2.672,405195
0.292,-0.094,-1.149,-3.786,3.649,-2.504,409206
0.292,-0.100,-1.158,-4.061,3.878,-2.153,413226
0.287,-0.103,-1.155,-4.443,4.076,-1.969,417237
0.275,-0.100,-1.168,-4.824,3.893,-1.786,421248
0.278,-0.106,-1.170,-5.359,4.061,-1.740,425259
0.265,-0.101,-1.175,-6.046,3.985,-1.664,429271
0.264,-0.101,-1.188,-6.931,3.542,-1.679,433291
0.259,-0.102,-1.187,-7.420,3.359,-1.817,437302
0.254,-0.104,-1.185,-8.046,3.130,-2.336,441313
0.237,-0.103,-1.192,-8.351,2.794,-2.885,445324
0.222,-0.108,-1.203,-8.916,2.824,-3.466,449335
0.201,-0.108,-1.204,-8.977,2.046,-3.969,453347
0.194,-0.119,-1.197,-9.298,-0.031,-4.443,457357
0.182,-0.125,-1.213,-10.183,-0.534,-5.115,461368
0.164,-0.137,-1.214,-10.901,-0.458,-5.786,465379
0.151,-0.150,-1.222,-11.893,-0.153,-6.382,469390
0.141,-0.153,-1.225,-12.947,0.275,-7.313,473401
0.121,-0.169,-1.234,-14.092,0.244,-8.595,477412
0.090,-0.170,-1.238,-14.992,-0.275,-9.985,481423
0.061,-0.175,-1.238,-15.542,-1.023,-11.771,485434
0.042,-0.178,-1.250,-15.679,-2.031,-13.313,489446
0.033,-0.179,-1.253,-16.183,-1.435,-14.351,493457
0.028,-0.175,-1.249,-17.252,-0.763,-15.756,497468
0.024,-0.179,-1.253,-18.672,1.557,-16.366,501479
0.019,-0.187,-1.246,-20.382,4.504,-17.298,505490
0.018,-0.190,-1.236,-21.771,6.443,-17.802,509501
0.016,-0.178,-1.259,-22.366,5.099,-17.893,513511
0.025,-0.163,-1.244,-22.779,9.649,-17.450,517522
0.037,-0.146,-1.240,-22.656,10.885,-17.664,521533
0.026,-0.139,-1.254,-22.718,6.992,-18.595,525544
0.006,-0.147,-1.262,-22.931,0.366,-20.366,529556
-0.015,-0.150,-1.273,-23.466,-7.985,-22.794,533566
-0.034,-0.154,-1.258,-24.473,-9.511,-24.992,537578
-0.080,-0.162,-1.292,-25.298,-17.863,-27.740,541588
-0.107,-0.180,-1.291,-26.962,-26.992,-30.672,545599
-0.127,-0.183,-1.298,-28.931,-31.221,-30.870,549610
-0.146,-0.188,-1.296,-31.221,-31.191,-30.779,553630
-0.168,-0.190,-1.283,-33.557,-26.656,-33.756,557642
-0.169,-0.196,-1.290,-36.000,-22.214,-35.557,561653
-0.180,-0.201,-1.271,-38.855,-15.588,-37.328,565664
-0.201,-0.203,-1.261,-41.282,-6.305,-40.992,569675
-0.208,-0.200,-1.260,-43.298,3.176,-44.412,573696
-0.203,-0.202,-1.279,-44.962,9.237,-45.130,577708
-0.190,-0.207,-1.270,-46.473,17.573,-43.664,581719
-0.170,-0.203,-1.268,-47.893,23.023,-41.511,585730
-0.150,-0.202,-1.274,-48.718,25.695,-39.084,589741
-0.126,-0.197,-1.264,-49.359,26.840,-36.198,593751
-0.115,-0.177,-1.265,-49.450,22.214,-33.176,597762
-0.115,-0.177,-1.265,-49.435,17.252,-29.053,601773
-0.111,-0.168,-1.282,-49.817,11.450,-25.267,605785
-0.103,-0.161,-1.257,-49.405,1.389,-20.412,609796
-0.089,-0.157,-1.240,-48.962,-2.305,-15.435,613806
-0.083,-0.140,-1.232,-47.939,-6.183,-10.992,617817
-0.070,-0.123,-1.235,-46.305,-12.168,-6.641,621827
-0.069,-0.097,-1.223,-44.305,-15.191,-1.679,625839
-0.061,-0.093,-1.216,-41.298,-17.863,5.176,629850
-0.069,-0.077,-1.203,-39.206,-14.580,8.168,633871
-0.076,-0.064,-1.208,-36.443,-14.427,10.748,637882
-0.075,-0.052,-1.196,-34.290,-14.137,13.527,641893
-0.062,-0.058,-1.196,-32.275,-11.893,15.115,645905
-0.058,-0.064,-1.191,-30.275,-9.115,15.481,649916
-0.056,-0.060,-1.183,-28.229,-5.969,16.076,653927
-0.044,-0.061,-1.191,-26.092,-3.710,16.962,657938
-0.023,-0.063,-1.181,-23.771,-0.183,17.985,661950
-0.001,-0.059,-1.164,-21.023,4.885,18.824,665961
0.058,-0.045,-1.162,-18.458,9.618,19.847,669972
0.083,-0.054,-1.144,-16.748,16.641,22.031,673984
0.123,-0.058,-1.136,-14.458,21.282,22.687,677995
0.178,-0.065,-1.144,-12.992,24.458,23.267,682006
0.202,-0.066,-1.141,-11.450,26.260,24.198,686017
0.260,-0.070,-1.140,-10.000,23.542,26.931,690028
0.318,-0.082,-1.132,-9.176,19.649,33.267,694039
0.352,-0.086,-1.157,-9.160,9.908,39.374,698051
0.375,-0.089,-1.160,-9.130,-4.046,44.290,702062
0.382,-0.102,-1.173,-9.710,-19.893,50.275,706074
0.363,-0.100,-1.175,-10.137,-37.145,54.183,710085
0.345,-0.094,-1.162,-10.656,-47.115,57.038,714096
0.310,-0.079,-1.177,-10.702,-68.687,58.809,718107
0.270,-0.080,-1.144,-11.252,-76.977,57.481,722118
0.246,-0.071,-1.149,-11.435,-82.305,57.298,726129
0.231,-0.058,-1.127,-11.069,-78.534,57.695,730141
0.215,-0.064,-1.108,-10.550,-67.481,62.229,734152
0.215,-0.047,-1.097,-8.809,-54.977,73.832,738160
0.204,-0.017,-1.090,-7.557,-35.191,73.664,742171
0.217,-0.018,-1.065,-7.771,-7.618,73.527,746182
0.258,0.010,-1.075,-7.237,21.252,66.687,750194
0.313,0.014,-1.074,-2.641,40.550,58.076,754205
0.373,-0.013,-1.047,2.824,62.183,55.176,758218
0.432,0.012,-1.087,0.687,75.176,53.557,762229
0.501,-0.008,-1.076,1.115,75.313,49.679,766240
0.598,-0.039,-1.089,0.565,61.344,69.588,770251
0.558,-0.032,-1.099,-0.412,44.458,68.962,774262
0.584,-0.053,-1.120,-1.328,16.305,68.809,778274
0.590,-0.070,-1.112,-2.809,-7.527,67.908,782286
0.593,-0.074,-1.110,-4.626,-30.473,67.740,786297
0.580,-0.077,-1.121,-6.122,-54.031,65.618,790309
0.570,-0.078,-1.115,-8.855,-73.481,61.252,794320
0.587,-0.086,-1.083,-11.710,-78.351,63.435,798331
0.568,-0.068,-1.077,-14.015,-80.214,63.847,802343
0.579,-0.054,-1.052,-15.450,-70.336,66.244,806353
0.588,-0.038,-1.045,-16.489,-56.198,69.084,810364
0.601,-0.015,-1.055,-17.252,-40.947,70.763,814375
0.615,-0.002,-1.068,-17.267,-30.092,71.496,818386
0.632,0.016,-1.052,-17.313,-15.496,72.565,822398
0.621,0.027,-1.046,-16.260,-6.855,72.840,826409
0.621,0.030,-1.073,-14.748,-4.748,72.198,830421
0.630,0.049,-1.072,-13.191,-7.466,70.504,834432
0.622,0.058,-1.076,-10.870,-17.115,67.221,838442
0.625,0.065,-1.078,-8.794,-25.924,63.664,842453
0.627,0.062,-1.082,-7.115,-32.794,60.473,846464
0.621,0.046,-1.081,-5.908,-39.282,57.344,850475
0.624,0.038,-1.073,-5.237,-46.992,53.802,854486
0.633,0.025,-1.066,-5.847,-46.962,51.069,858497
0.619,0.015,-1.060,-6.718,-46.031,48.809,862508
0.611,0.011,-1.042,-8.519,-38.672,47.481,866519
0.598,0.001,-1.029,-10.626,-29.573,47.191,870530
0.588,0.006,-1.033,-13.053,-21.298,47.099,874541
0.578,0.007,-1.024,-15.725,-11.328,47.420,878549
0.571,0.019,-1.016,-17.679,-4.611,47.695,882560
0.582,0.024,-1.035,-19.252,3.267,48.748,886571
0.603,0.042,-1.022,-20.809,14.275,50.214,890582
0.629,0.053,-1.025,-21.450,18.733,50.824,894593
0.655,0.065,-1.014,-21.679,22.198,51.863,898604
0.670,0.081,-1.020,-21.878,21.618,52.000,902615
0.678,0.095,-1.024,-20.809,18.229,52.153,906626
0.677,0.107,-1.029,-19.496,12.412,50.702,910638
0.671,0.113,-1.036,-17.756,0.947,48.229,914649
0.656,0.118,-1.050,-15.817,-11.603,45.023,918660
0.648,0.117,-1.024,-14.198,-20.748,42.183,922681
0.634,0.112,-1.031,-12.000,-30.855,38.397,926692
0.628,0.112,-1.028,-10.321,-40.840,34.702,930703
0.624,0.110,-1.020,-9.374,-42.992,32.061,934714
0.609,0.104,-1.032,-9.282,-44.870,29.588,938726
0.582,0.103,-1.026,-9.023,-41.221,28.122,942741
0.552,0.100,-1.021,-9.466,-37.435,26.641,946752
0.518,0.102,-1.019,-9.863,-32.779,25.695,950763
0.501,0.099,-1.012,-10.489,-24.519,25.038,954775
0.491,0.097,-1.014,-11.344,-16.794,24.275,958786
0.478,0.101,-1.016,-12.275,-9.405,23.298,962797
0.458,0.098,-1.017,-13.160,-4.122,22.504,966808
0.437,0.105,-1.013,-13.573,-0.244,21.832,970820
0.422,0.107,-1.019,-13.847,5.008,21.557,974831
0.421,0.114,-1.019,-14.305,7.252,21.160,978842
0.412,0.114,-1.010,-14.504,8.931,19.771,982852
0.419,0.112,-1.005,-14.351,9.832,18.992,986863
0.421,0.111,-1.010,-14.244,10.916,18.504,990874
0.430,0.112,-1.000,-13.710,14.183,18.534,994885
0.433,0.118,-1.024,-13.450,15.573,18.290,998897
0.438,0.115,-1.023,-13.252,15.267,18.015,1002906
0.454,0.107,-1.033,-12.916,14.565,17.176,1006917
0.453,0.099,-1.032,-12.641,13.740,16.458,1010928
0.455,0.103,-1.037,-12.458,11.847,15.817,1014940
0.444,0.105,-1.056,-11.985,7.084,14.641,1018951
0.446,0.095,-1.053,-11.664,3.450,13.511,1022970
0.449,0.100,-1.062,-10.779,0.565,12.321,1026981
0.453,0.093,-1.056,-10.519,-0.901,11.206,1030992
0.448,0.096,-1.065,-10.107,-4.092,9.817,1035004
0.436,0.093,-1.071,-9.740,-6.122,8.244,1039015
0.422,0.088,-1.076,-9.664,-6.916,7.145,1043036
0.417,0.082,-1.079,-10.000,-7.328,6.092,1047047
0.401,0.078,-1.087,-10.198,-6.595,4.672,1051058
0.400,0.070,-1.087,-10.672,-6.947,2.931,1055069
0.387,0.071,-1.097,-10.840,-7.893,1.511,1059080
0.374,0.071,-1.099,-10.931,-7.511,0.473,1063092
0.358,0.072,-1.108,-10.947,-6.260,-0.626,1067102
0.346,0.082,-1.095,-10.885,-4.977,-1.389,1071114
0.341,0.089,-1.104,-10.458,-4.336,-2.061,1075124
0.351,0.088,-1.112,-9.908,-3.038,-2.061,1079135
0.340,0.092,-1.097,-9.206,-1.466,-2.366,1083147
0.337,0.092,-1.091,-8.290,-0.275,-2.824,1087158
0.331,0.097,-1.095,-7.191,0.031,-2.656,1091169
0.323,0.092,-1.094,-6.412,0.626,-2.687,1095180
0.318,0.086,-1.104,-5.603,0.260,-3.053,1099191
0.322,0.073,-1.115,-5.053,-0.122,-3.191,1103212
0.314,0.064,-1.109,-5.145,-0.321,-3.847,1107223
0.315,0.062,-1.109,-5.099,-0.550,-4.260,1111234
0.305,0.053,-1.113,-5.069,-0.611,-4.977,1115245
0.305,0.044,-1.124,-5.695,-0.412,-6.031,1119256
0.294,0.041,-1.118,-6.290,-0.672,-6.748,1123276
0.286,0.032,-1.118,-7.038,-0.611,-7.588,1127286
0.285,0.031,-1.123,-7.802,-0.458,-8.168,1131297
0.281,0.030,-1.132,-8.580,-0.901,-8.901,1135308
0.280,0.028,-1.140,-9.252,-0.901,-9.328,1139319
0.270,0.024,-1.127,-9.786,-0.137,-9.557,1143337
0.267,0.028,-1.115,-10.275,0.733,-9.603,1147348
0.268,0.031,-1.111,-10.641,2.122,-9.466,1151359
0.276,0.028,-1.109,-10.870,3.679,-9.023,1155370
0.278,0.031,-1.110,-11.115,5.588,-8.580,1159381
0.280,0.032,-1.097,-10.901,5.389,-8.092,1163392
0.284,0.037,-1.097,-10.397,7.893,-7.466,1167403
0.283,0.043,-1.107,-9.481,9.511,-7.282,1171414
0.282,0.050,-1.117,-8.321,8.183,-7.008,1175425
0.270,0.056,-1.117,-7.038,6.519,-7.405,1179436
0.273,0.058,-1.112,-5.985,3.878,-8.046,1183447
0.277,0.052,-1.118,-5.237,3.282,-8.366,1187458
0.275,0.037,-1.114,-4.672,2.244,-8.885,1191469
0.264,0.028,-1.119,-4.000,1.176,-9.664,1195480
0.260,0.027,-1.116,-3.725,-0.412,-10.229,1199491
0.260,0.024,-1.127,-3.389,-1.053,-10.641,1203502
0.241,0.022,-1.120,-3.542,-1.374,-11.115,1207513
0.242,0.019,-1.117,-4.122,-1.954,-11.359,1211524
0.234,0.013,-1.115,-4.458,-2.763,-11.344,1215535
0.216,0.002,-1.112,-4.687,-3.832,-11.145,1219546
0.218,0.003,-1.109,-5.313,-3.664,-10.794,1223555
0.206,-0.003,-1.103,-5.603,-2.611,-10.351,1227566
0.190,-0.006,-1.113,-6.000,-2.473,-9.511,1231577
0.192,-0.002,-1.108,-6.595,-1.145,-8.595,1235589
0.191,0.000,-1.114,-6.702,1.389,-7.603,1239600
0.210,-0.007,-1.103,-7.023,5.191,-6.382,1243619
0.227,-0.001,-1.108,-7.374,8.015,-5.802,1247630
0.242,-0.003,-1.097,-7.603,11.420,-4.779,1251641
0.256,0.008,-1.102,-7.679,16.489,-3.878,1255652
0.261,0.010,-1.111,-7.221,16.214,-3.817,1259663
0.263,0.014,-1.109,-6.519,15.710,-3.542,1263684
0.263,0.016,-1.127,-5.756,12.061,-3.832,1267695
0.257,0.027,-1.128,-4.656,6.565,-4.534,1271706
0.259,0.024,-1.129,-3.557,0.840,-5.771,1275717
0.255,0.025,-1.126,-2.412,-4.382,-6.794,1279728
0.247,0.023,-1.125,-1.344,-10.122,-7.969,1283741
0.247,0.018,-1.128,-0.458,-15.618,-8.580,1287752
0.239,0.010,-1.113,-0.092,-17.008,-8.595,1291763
0.229,0.009,-1.125,0.305,-18.015,-8.809,1295774
0.229,-0.003,-1.104,0.382,-14.763,-8.534,1299785
0.221,-0.005,-1.125,-0.061,-11.924,-8.198,1303795
0.214,-0.009,-1.109,-0.504,-7.832,-7.802,1307806
0.214,-0.017,-1.108,-1.405,-1.496,-6.931,1311816
0.209,-0.019,-1.128,-2.015,1.817,-6.718,1315827
0.217,-0.025,-1.120,-2.626,4.687,-6.427,1319839
0.210,-0.011,-1.109,-3.588,9.511,-5.725,1323858
0.211,-0.008,-1.135,-4.183,10.733,-5.420,1327869
0.206,-0.009,-1.137,-4.580,10.565,-5.252,1331881
0.205,-0.002,-1.144,-5.115,8.412,-5.008,1335891
0.202,0.006,-1.135,-5.008,6.244,-4.947,1339902
0.202,0.005,-1.120,-5.145,6.137,-4.321,1343923
0.211,0.015,-1.131,-4.947,5.267,-4.000,1347934
0.212,0.021,-1.135,-4.779,5.237,-3.588,1351945
0.211,0.022,-1.135,-4.366,5.237,-3.252,1355956
0.215,0.036,-1.139,-3.679,5.130,-2.885,1359967
0.220,0.042,-1.142,-2.901,4.977,-2.672,1363978
0.244,0.044,-1.135,-2.351,6.611,-2.214,1367990
0.242,0.040,-1.131,-1.695,8.168,-2.092,1372002
0.247,0.042,-1.136,-1.160,8.031,-2.122,1376012
0.245,0.026,-1.142,-0.763,6.947,-2.641,1380023
0.236,0.027,-1.146,-0.626,3.725,-3.191,1384035
0.234,0.023,-1.150,-0.626,0.458,-4.122,1388046
0.221,0.018,-1.152,-0.885,-2.351,-4.977,1392058
0.208,0.022,-1.146,-1.053,-4.321,-5.466,1396068
0.203,0.010,-1.156,-1.359,-9.405,-6.290,1400079
0.199,0.015,-1.141,-2.122,-9.695,-6.275,1404090
0.196,0.016,-1.138,-2.702,-9.924,-6.336,1408097
0.189,0.020,-1.126,-3.557,-7.649,-5.939,1412108
0.182,0.017,-1.129,-4.489,-4.733,-4.885,1416119
0.184,0.016,-1.128,-5.176,-2.382,-3.435,1420130
0.185,0.031,-1.121,-5.695,1.908,-2.198,1424141
0.182,0.032,-1.114,-6.260,5.954,-2.031,1428155
0.193,0.045,-1.116,-6.214,8.122,-0.977,1432166
0.205,0.041,-1.101,-6.290,12.580,0.519,1436177
0.206,0.045,-1.107,-6.275,13.649,1.084,1440188
0.212,0.048,-1.113,-6.076,14.122,1.573,1444199
0.212,0.050,-1.111,-5.466,13.588,1.863,1448211
0.216,0.058,-1.117,-4.779,11.756,2.046,1452222
0.223,0.061,-1.119,-3.878,10.595,2.290,1456233
0.229,0.048,-1.117,-2.916,8.046,2.153,1460244
0.239,0.056,-1.125,-1.954,5.328,1.756,1464255
0.245,0.057,-1.131,-1.008,3.969,1.603,1468267
0.251,0.053,-1.134,-0.168,2.427,1.221,1472278
0.254,0.048,-1.135,0.565,0.763,1.069,1476289
0.252,0.037,-1.131,0.977,-1.160,0.427,1480300
0.246,0.028,-1.125,0.901,-2.092,0.092,1484311
0.249,0.022,-1.137,0.885,-3.069,-0.305,1488323
0.260,0.011,-1.141,0.626,-3.634,-0.779,1492334
0.259,-0.000,-1.152,-0.046,-4.336,-1.740,1496345
0.257,0.002,-1.149,-0.870,-4.305,-2.870,1500356
0.267,-0.006,-1.153,-1.832,-3.863,-3.878,1504367
0.264,-0.005,-1.150,-2.809,-2.855,-4.916,1508378
0.267,-0.004,-1.149,-3.634,-1.786,-6.107,1512389
0.269,0.003,-1.155,-4.092,-1.450,-7.053,1516400
0.279,0.009,-1.161,-4.489,-0.931,-8.336,1520411
0.280,0.018,-1.156,-4.641,0.336,-8.885,1524422
0.289,0.026,-1.154,-5.038,1.969,-9.206,1528433
0.288,0.033,-1.167,-4.824,2.122,-9.496,1532444
0.295,0.040,-1.157,-4.519,2.183,-9.817,1536455
0.292,0.042,-1.162,-4.260,1.160,-9.756,1540466
0.287,0.045,-1.165,-3.847,-0.275,-10.015,1544477
0.280,0.046,-1.159,-3.557,-2.122,-9.893,1548488
0.277,0.043,-1.169,-2.901,-4.626,-9.618,1552499
0.264,0.043,-1.157,-2.382,-5.527,-9.191,1556510
0.260,0.049,-1.162,-2.076,-6.672,-8.565,1560521
0.246,0.050,-1.159,-1.832,-9.618,-8.290,1564532
0.238,0.048,-1.166,-1.664,-11.206,-7.863,1568544
0.220,0.049,-1.154,-1.389,-11.221,-7.221,1572556
0.224,0.042,-1.154,-1.267,-10.229,-6.809,1576566
0.227,0.037,-1.163,-1.603,-9.023,-6.382,1580577
0.229,0.037,-1.156,-1.466,-8.092,-6.061,1584589
0.230,0.034,-1.141,-1.679,-5.649,-5.450,1588600
0.224,0.034,-1.153,-2.015,-4.947,-5.344,1592611
0.228,0.025,-1.146,-2.412,-4.229,-5.374,1596622
0.231,0.027,-1.157,-3.191,-3.695,-4.870,1600634
0.225,0.025,-1.154,-3.542,-4.260,-5.023,1604645
0.224,0.031,-1.155,-4.000,-5.496,-4.962,1608656
0.222,0.032,-1.156,-4.519,-7.771,-5.481,1612677
0.217,0.033,-1.154,-4.870,-9.969,-5.603,1616688
0.213,0.032,-1.149,-5.160,-10.840,-5.573,1620699
0.206,0.038,-1.149,-5.237,-12.046,-5.802,1624710
0.202,0.039,-1.146,-4.962,-14.489,-5.939,1628722
0.193,0.045,-1.147,-4.962,-16.015,-5.160,1632735
0.203,0.042,-1.142,-4.687,-15.985,-4.489,1636746
0.196,0.046,-1.135,-4.565,-15.344,-4.321,1640757
0.185,0.040,-1.129,-4.519,-14.779,-3.924,1644768
0.184,0.039,-1.133,-4.183,-14.290,-3.389,1648779
0.182,0.046,-1.132,-3.893,-13.878,-1.863,1652790
0.171,0.042,-1.123,-3.542,-12.687,-1.053,1656801
0.168,0.039,-1.131,-3.389,-10.656,-0.458,1660812
0.169,0.036,-1.121,-3.481,-7.802,-0.641,1664823
0.183,0.025,-1.123,-3.756,-4.748,-0.275,1668834
0.187,0.025,-1.129,-4.107,-3.710,0.321,1672845
0.195,0.016,-1.126,-4.183,-2.244,0.931,1676855
0.204,0.018,-1.125,-4.534,0.168,1.695,1680866
0.205,0.018,-1.118,-4.718,2.458,1.863,1684877
0.209,0.016,-1.129,-4.870,1.939,1.878,1688889
0.220,0.019,-1.127,-5.023,0.947,1.679,1692899
0.229,0.016,-1.141,-5.252,0.214,1.664,1696910
0.234,0.018,-1.118,-5.450,-0.687,1.450,1700921
0.240,0.016,-1.127,-5.618,-2.122,1.115,1704932
0.230,0.017,-1.146,-5.710,-4.672,0.443,1708943
0.231,0.028,-1.140,-5.740,-7.084,0.168,1712962
0.239,0.030,-1.131,-5.664,-7.481,0.305,1716973
0.235,0.031,-1.128,-5.740,-8.015,0.137,1720984
0.228,0.034,-1.134,-5.481,-9.710,-0.092,1724995
0.225,0.026,-1.135,-5.252,-10.855,-0.229,1729006
0.213,0.032,-1.128,-5.099,-10.366,-0.305,1733026
0.205,0.031,-1.128,-4.977,-9.573,-0.122,1737038
0.205,0.033,-1.131,-4.779,-8.840,-0.137,1741049
0.205,0.034,-1.138,-4.641,-8.137,-0.214,1745061
0.204,0.036,-1.125,-4.534,-6.076,-0.046,1749072
0.207,0.041,-1.124,-4.412,-3.221,0.153,1753090
0.211,0.042,-1.132,-4.412,-1.817,0.397,1757101
0.205,0.031,-1.123,-4.458,-0.718,0.489,1761113
0.199,0.034,-1.122,-4.275,0.275,0.718,1765123
0.207,0.040,-1.132,-4.092,1.252,0.916,1769134
0.208,0.029,-1.124,-4.061,2.183,1.191,1773146
0.219,0.036,-1.137,-4.275,2.427,1.282,1777157
0.232,0.031,-1.132,-4.031,3.206,1.237,1781168
0.229,0.034,-1.128,-4.122,4.427,1.527,1785179
0.232,0.038,-1.130,-4.000,4.962,1.649,1789190
0.237,0.032,-1.138,-4.244,4.595,1.573,1793211
0.237,0.034,-1.141,-4.321,3.664,1.328,1797222
0.245,0.035,-1.126,-4.321,2.443,1.053,1801233
0.237,0.034,-1.129,-4.229,0.947,0.718,1805245
0.239,0.040,-1.142,-4.427,-1.267,0.595,1809256
0.231,0.041,-1.139,-4.672,-3.405,0.305,1813276
0.220,0.036,-1.136,-4.519,-3.832,0.015,1817286
0.226,0.044,-1.145,-4.809,-4.534,-0.672,1821297
0.215,0.043,-1.141,-4.718,-5.985,-1.420,1825308
0.206,0.039,-1.151,-4.977,-7.893,-2.229,1829319
0.192,0.035,-1.145,-5.160,-7.985,-2.565,1833337
0.191,0.036,-1.133,-5.267,-7.084,-2.779,1837348
0.189,0.040,-1.134,-5.420,-6.076,-3.008,1841359
0.193,0.034,-1.136,-5.573,-5.099,-2.962,1845370
0.195,0.044,-1.130,-5.664,-3.084,-2.733,1849381
0.188,0.042,-1.135,-5.710,-0.794,-2.626,1853392
0.188,0.052,-1.135,-5.771,1.618,-2.626,1857403
0.196,0.054,-1.131,-5.405,2.748,-2.244,1861414
0.193,0.048,-1.125,-4.947,4.336,-1.496,1865425
0.205,0.046,-1.140,-4.977,6.931,-0.611,1869436
0.219,0.052,-1.128,-4.656,7.466,-0.153,1873447
0.218,0.055,-1.133,-4.397,7.664,0.290,1877458
0.222,0.050,-1.134,-4.107,6.290,0.901,1881469
0.236,0.049,-1.130,-3.695,4.626,1.008,1885480
0.234,0.042,-1.137,-3.405,3.313,0.779,1889491
0.231,0.033,-1.135,-3.466,-0.183,0.183,1893502
0.219,0.027,-1.149,-3.725,-3.405,-0.366,1897513
0.216,0.026,-1.150,-4.031,-4.046,-1.099,1901524
0.212,0.026,-1.152,-4.626,-7.191,-1.893,1905535
0.212,0.027,-1.151,-5.053,-8.916,-2.947,1909546
0.212,0.030,-1.161,-5.725,-9.099,-3.679,1913555
0.199,0.035,-1.158,-6.290,-8.321,-3.893,1917566
0.201,0.037,-1.148,-6.656,-5.832,-4.107,1921577
0.201,0.042,-1.152,-6.687,-4.855,-4.351,1925589
0.193,0.045,-1.148,-6.870,-3.985,-4.015,1929600
0.185,0.051,-1.145,-6.550,-2.443,-3.618,1933619
0.188,0.052,-1.149,-6.321,-1.282,-3.634,1937630
0.192,0.057,-1.139,-5.908,0.122,-3.206,1941641
0.191,0.053,-1.140,-5.328,0.748,-3.191,1945652
0.201,0.058,-1.132,-4.809,1.298,-2.931,1949663
0.204,0.054,-1.145,-4.290,1.710,-2.550,1953684
0.201,0.054,-1.141,-3.573,2.687,-2.305,1957695
0.216,0.061,-1.144,-2.931,3.664,-2.046,1961706
0.219,0.058,-1.141,-2.733,3.542,-1.771,1965717
0.227,0.052,-1.140,-2.733,3.145,-1.985,1969728
0.221,0.059,-1.149,-2.336,2.626,-2.031,1973741
0.220,0.052,-1.145,-2.015,1.511,-2.076,1977752
0.220,0.048,-1.152,-1.954,0.031,-2.061,1981763
0.214,0.056,-1.142,-1.588,-1.557,-2.260,1985774
0.211,0.053,-1.151,-1.878,-1.969,-2.229,1989785
0.207,0.049,-1.155,-2.198,-3.221,-2.137,1993795
0.209,0.047,-1.148,-2.473,-4.519,-2.107,1997806
0.206,0.044,-1.135,-2.977,-4.183,-1.954,2001817
