acc_x,acc_y,acc_z,gyro_x,gyro_y,gyro_z,time
-0.004,0.063,-1.109,-4.824,2.031,0.107,0
0.000,0.054,-1.108,-5.145,2.015,0.092,4038
-0.001,0.060,-1.110,-5.099,2.061,0.137,8049
0.003,0.061,-1.114,-5.053,2.229,0.183,12059
-0.000,0.058,-1.108,-4.901,2.489,0.061,16069
0.014,0.068,-1.110,-4.550,2.794,0.443,20079
0.009,0.070,-1.111,-4.092,2.427,0.321,24088
0.014,0.063,-1.111,-3.679,2.641,0.580,28099
0.017,0.064,-1.116,-3.542,2.351,0.702,32109
0.020,0.070,-1.109,-3.038,1.985,0.718,36119
0.034,0.070,-1.118,-2.916,2.076,0.748,40129
0.021,0.062,-1.115,-2.794,1.664,1.252,44139
0.016,0.060,-1.116,-2.824,1.069,1.847,48151
0.019,0.058,-1.115,-2.977,1.069,2.473,52160
0.014,0.061,-1.113,-3.466,0.550,3.084,56169
0.006,0.061,-1.116,-3.618,0.595,3.649,60179
0.006,0.064,-1.112,-3.802,0.763,3.695,64189
0.007,0.072,-1.104,-3.664,0.473,4.000,68199
0.010,0.075,-1.099,-3.527,0.504,4.092,72209
0.013,0.080,-1.107,-3.298,0.168,4.031,76219
0.020,0.083,-1.101,-3.038,-0.275,3.573,80230
0.022,0.088,-1.109,-2.565,-1.008,3.359,84239
0.028,0.086,-1.114,-1.817,-1.634,2.626,88250
0.026,0.092,-1.123,-1.710,-2.824,1.771,92260
0.022,0.090,-1.128,-1.282,-3.679,0.824,96271
0.022,0.096,-1.125,-0.443,-4.733,0.076,100280
0.018,0.102,-1.131,0.748,-5.893,-1.084,104290
0.016,0.108,-1.117,2.351,-6.840,-2.336,108300
0.010,0.129,-1.125,4.244,-7.527,-3.985,112310
0.005,0.124,-1.126,6.168,-8.550,-5.420,116321
-0.004,0.121,-1.137,7.237,-9.740,-5.954,120330
0.005,0.116,-1.124,9.282,-10.382,-6.901,124340
-0.007,0.111,-1.131,11.130,-10.901,-7.756,128349
-0.019,0.105,-1.131,12.916,-11.252,-8.580,132359
-0.023,0.095,-1.129,14.336,-11.435,-9.511,136370
-0.024,0.093,-1.125,15.588,-11.420,-10.443,140379
-0.034,0.081,-1.122,16.214,-11.435,-10.901,144389
-0.037,0.074,-1.117,16.702,-11.130,-11.130,148399
-0.048,0.065,-1.111,16.641,-10.672,-11.267,152408
-0.047,0.055,-1.107,16.214,-9.908,-11.359,156417
-0.045,0.057,-1.111,15.756,-9.344,-11.252,160427
-0.046,0.042,-1.105,14.931,-8.168,-10.687,164436
-0.047,0.024,-1.101,13.634,-7.588,-10.137,168446
-0.041,0.020,-1.089,12.183,-6.626,-9.206,172456
-0.026,0.008,-1.092,10.779,-6.031,-8.076,176466
-0.013,0.008,-1.090,9.435,-5.511,-7.466,180476
-0.011,-0.003,-1.089,7.893,-5.023,-6.809,184486
-0.013,-0.012,-1.095,6.702,-4.733,-6.336,188497
-0.003,-0.010,-1.094,5.130,-4.244,-5.756,192507
-0.006,-0.004,-1.090,3.466,-4.244,-5.267,196517
-0.007,-0.006,-1.094,1.542,-3.954,-4.794,200526
-0.003,-0.014,-1.087,-0.382,-3.847,-4.183,204535
-0.002,-0.008,-1.091,-2.168,-3.679,-3.267,208542
0.002,-0.007,-1.095,-3.740,-3.374,-2.977,212552
-0.002,-0.007,-1.094,-5.145,-3.038,-2.672,216562
0.001,-0.003,-1.090,-6.519,-2.885,-2.366,220571
-0.009,-0.009,-1.096,-7.847,-2.840,-1.924,224581
0.004,-0.005,-1.088,-8.809,-2.748,-1.573,228592
-0.001,0.000,-1.088,-9.817,-2.672,-1.252,232602
0.000,0.010,-1.099,-10.595,-3.191,-1.023,236612
0.000,0.010,-1.101,-11.160,-3.344,-0.901,240622
0.009,0.010,-1.100,-11.786,-3.908,-1.069,244632
0.015,0.005,-1.106,-12.595,-4.092,-1.527,248642
0.002,0.006,-1.106,-12.885,-4.824,-2.214,252661
-0.018,0.006,-1.119,-13.679,-4.840,-1.603,256671
-0.005,0.008,-1.104,-14.137,-4.748,-1.985,260682
-0.007,0.016,-1.102,-14.214,-4.595,-2.107,264691
0.005,0.024,-1.112,-14.107,-4.763,-2.885,268702
-0.015,0.028,-1.104,-13.344,-4.641,-2.611,272714
-0.016,0.034,-1.118,-12.473,-3.954,-1.924,276723
-0.022,0.030,-1.121,-11.420,-3.221,-1.893,280733
-0.025,0.035,-1.118,-10.122,-2.183,-1.695,284743
-0.025,0.042,-1.123,-9.069,-0.977,-1.359,288752
-0.042,0.039,-1.112,-8.214,0.107,-0.489,292762
-0.041,0.025,-1.115,-7.557,2.076,1.145,296772
0.016,0.005,-1.112,-6.473,3.542,-1.023,300783
-0.057,0.036,-1.106,-5.771,4.534,-0.214,304792
-0.065,0.036,-1.129,-5.939,5.863,4.718,308804
-0.060,0.038,-1.118,-5.389,7.267,7.969,312813
-0.026,0.031,-1.118,-5.206,9.115,10.183,316824
-0.002,0.024,-1.119,-4.947,9.603,10.916,320833
0.013,0.014,-1.125,-5.221,9.939,11.282,324843
0.018,0.010,-1.123,-5.481,9.496,11.557,328855
0.022,0.017,-1.128,-5.817,9.023,12.092,332864
0.023,0.012,-1.126,-6.626,8.412,12.534,336875
0.014,0.011,-1.127,-7.115,7.740,12.947,340884
0.007,0.028,-1.121,-7.313,6.763,13.115,344894
0.008,0.024,-1.130,-7.344,6.260,13.145,348904
0.016,0.032,-1.123,-7.405,5.634,13.466,352918
0.008,0.022,-1.133,-7.420,4.733,13.939,356928
0.010,0.020,-1.120,-7.481,3.969,14.214,360939
0.005,0.014,-1.128,-7.313,3.603,14.534,364948
0.023,0.018,-1.126,-7.298,3.099,13.573,368958
-0.028,0.024,-1.130,-7.023,2.962,14.504,372977
-0.027,0.024,-1.136,-6.748,3.023,15.206,376988
-0.034,0.032,-1.128,-6.748,3.267,15.511,380998
-0.023,0.034,-1.125,-6.855,3.496,15.267,385007
-0.018,0.033,-1.140,-6.885,4.000,15.084,389017
-0.012,0.033,-1.133,-6.901,4.565,14.733,393036
-0.015,0.027,-1.141,-6.824,5.176,14.718,397046
-0.021,0.036,-1.136,-6.489,5.817,14.595,401056
-0.025,0.043,-1.125,-6.198,6.427,14.473,405065
-0.033,0.042,-1.117,-5.557,6.947,14.244,409075
-0.022,0.051,-1.126,-4.885,7.481,14.015,413085
-0.015,0.049,-1.124,-4.275,7.160,13.832,417095
-0.019,0.049,-1.128,-3.420,7.130,14.244,421105
-0.019,0.047,-1.130,-2.870,7.069,14.198,425115
-0.021,0.050,-1.141,-2.183,6.855,13.985,429125
-0.020,0.052,-1.139,-1.740,6.412,13.405,433134
-0.009,0.045,-1.135,-1.786,5.481,12.443,437144
-0.024,0.043,-1.138,-1.603,4.656,12.763,441155
-0.028,0.051,-1.138,-1.679,4.153,13.221,445164
-0.017,0.047,-1.143,-1.939,3.496,12.870,449174
-0.010,0.037,-1.131,-2.107,3.298,12.046,453183
-0.031,0.044,-1.133,-2.198,3.176,12.534,457193
0.000,0.034,-1.138,-2.748,2.382,11.252,461204
-0.012,0.043,-1.129,-3.099,0.992,10.321,465213
0.001,0.042,-1.131,-3.466,0.550,8.687,469223
0.004,0.039,-1.126,-3.786,0.260,7.817,473242
-0.052,0.038,-1.121,-3.191,0.092,10.351,477252
-0.061,0.038,-1.129,-3.084,0.198,12.779,481262
-0.057,0.045,-1.119,-2.489,1.130,13.221,485271
-0.049,0.050,-1.119,-2.198,1.389,13.221,489281
-0.047,0.046,-1.114,-1.985,1.832,12.885,493300
-0.031,0.043,-1.127,-1.588,2.107,11.985,497311
-0.031,0.049,-1.119,-1.145,2.595,11.160,501320
-0.047,0.043,-1.123,-1.069,2.962,11.374,505329
-0.043,0.041,-1.114,-0.656,3.389,11.511,509339
-0.045,0.047,-1.113,-0.275,3.237,11.023,513349
-0.040,0.047,-1.113,0.046,3.466,10.412,517359
-0.015,0.047,-1.120,0.397,3.053,8.962,521369
-0.038,0.044,-1.115,0.427,2.885,9.206,525379
-0.053,0.050,-1.111,0.244,2.290,9.893,529389
-0.045,0.043,-1.115,0.153,2.015,10.015,533399
-0.035,0.040,-1.110,0.168,1.282,9.435,537409
-0.035,0.041,-1.104,0.107,1.038,8.702,541419
-0.046,0.038,-1.106,0.092,0.656,8.641,545428
-0.032,0.033,-1.108,-0.137,0.794,8.595,549438
-0.044,0.033,-1.107,-0.397,0.534,8.244,553448
-0.058,0.035,-1.106,-0.931,0.947,8.092,557457
-0.047,0.024,-1.116,-1.374,1.145,6.885,561466
-0.027,0.030,-1.109,-1.863,1.344,5.237,565476
-0.044,0.033,-1.107,-2.489,1.908,5.573,569486
-0.035,0.031,-1.119,-2.748,2.443,5.328,573495
-0.021,0.038,-1.096,-3.023,2.504,5.008,577506
-0.061,0.033,-1.094,-2.977,2.733,5.878,581515
-0.043,0.033,-1.106,-2.763,2.840,6.198,585524
-0.040,0.030,-1.106,-2.382,2.534,5.695,589534
-0.031,0.035,-1.105,-2.107,2.260,5.435,593543
-0.023,0.031,-1.114,-2.107,2.366,5.786,597553
-0.030,0.031,-1.108,-1.481,2.107,6.626,601563
-0.031,0.040,-1.107,-1.176,2.000,7.725,605573
-0.015,0.039,-1.112,-0.687,1.237,7.954,609583
-0.010,0.031,-1.114,-0.489,0.366,8.061,613603
-0.010,0.030,-1.112,-0.107,-0.702,7.924,617612
0.000,0.026,-1.115,-0.168,-1.573,7.603,621621
0.014,0.029,-1.111,-0.214,-2.626,6.809,625630
-0.019,0.023,-1.106,-0.382,-3.389,7.206,629640
-0.033,0.027,-1.113,-0.656,-4.015,8.122,633658
-0.028,0.026,-1.110,-0.809,-3.863,8.443,637668
-0.035,0.028,-1.105,-1.053,-3.359,8.580,641678
-0.062,0.024,-1.104,-1.252,-2.580,9.679,645688
-0.062,0.024,-1.105,-1.511,-1.435,9.756,649698
-0.053,0.031,-1.104,-1.969,-0.595,9.344,653715
-0.054,0.029,-1.109,-2.275,0.260,9.359,657720
-0.048,0.028,-1.106,-2.412,1.282,9.405,661731
-0.050,0.031,-1.107,-2.611,2.000,9.053,665740
-0.043,0.031,-1.097,-2.397,2.366,9.008,669749
-0.045,0.032,-1.098,-2.183,2.214,9.023,673759
-0.031,0.034,-1.102,-1.878,1.908,8.687,677768
-0.029,0.027,-1.111,-1.710,1.618,8.626,681778
-0.018,0.034,-1.110,-1.679,1.359,8.305,685788
-0.027,0.029,-1.111,-1.115,0.870,7.847,689798
-0.040,0.031,-1.105,-0.855,0.809,8.122,693807
-0.026,0.027,-1.113,-0.504,0.763,7.298,697816
-0.036,0.043,-1.101,0.015,0.611,7.191,701826
-0.039,0.042,-1.107,0.382,0.550,7.282,705837
-0.034,0.030,-1.105,0.977,0.336,7.145,709846
-0.023,0.031,-1.109,1.389,0.015,6.397,713866
-0.002,0.042,-1.116,0.794,-0.550,4.916,717877
-0.043,0.045,-1.104,1.832,-1.389,6.427,721887
-0.080,0.022,-1.127,0.916,-0.550,9.832,725896
-0.067,0.016,-1.097,1.130,0.061,10.779,729912
-0.052,0.014,-1.108,1.038,0.626,10.718,733922
-0.025,0.014,-1.104,0.473,0.443,9.649,737932
-0.026,0.017,-1.109,-0.031,-0.137,9.160,741942
-0.026,0.008,-1.105,-0.427,0.244,9.496,745952
-0.031,0.013,-1.101,-1.130,0.336,9.756,749962
-0.043,0.007,-1.109,-1.389,0.595,10.168,753972
-0.037,0.011,-1.102,-1.786,0.611,10.534,757982
-0.038,0.020,-1.106,-1.725,1.145,10.427,761992
-0.035,0.023,-1.110,-1.542,1.878,10.519,766001
-0.028,0.027,-1.098,-1.344,1.649,10.550,770011
-0.020,0.031,-1.104,-1.893,1.435,10.626,774020
-0.024,0.034,-1.100,-2.031,0.779,11.160,778031
-0.026,0.026,-1.098,-1.695,0.855,11.008,782041
-0.016,0.032,-1.105,-0.794,0.779,10.702,786050
-0.027,0.039,-1.102,-0.153,0.977,10.672,790059
-0.037,0.036,-1.110,0.198,1.450,10.931,794069
-0.027,0.038,-1.104,0.763,1.282,10.748,798080
-0.013,0.040,-1.115,1.344,1.084,10.611,802089
0.002,0.035,-1.109,1.878,0.794,9.878,806098
-0.018,0.034,-1.103,2.321,0.473,10.214,810108
0.000,0.026,-1.105,2.565,0.534,10.580,814118
-0.003,0.033,-1.111,2.748,-1.084,9.618,818129
0.034,0.043,-1.105,2.901,-2.031,6.702,822138
-0.021,0.014,-1.106,3.466,-3.588,8.565,826148
-0.020,0.011,-1.107,3.115,-3.038,9.466,830158
-0.002,0.021,-1.107,2.977,-2.427,9.115,834168
-0.022,0.021,-1.104,2.809,-2.870,9.313,838177
-0.035,0.014,-1.110,2.443,-3.863,10.626,842187
-0.019,0.012,-1.100,2.366,-4.015,10.840,846198
-0.005,0.003,-1.106,2.290,-4.351,10.183,850207
0.002,0.005,-1.093,2.672,-4.504,9.237,854217
-0.011,0.013,-1.094,2.687,-4.427,9.802,858228
-0.020,0.011,-1.083,3.053,-4.229,9.573,862237
-0.022,0.016,-1.087,2.992,-3.924,9.985,866246
-0.035,0.010,-1.086,3.298,-3.160,10.427,870256
-0.009,0.020,-1.096,3.878,-3.237,11.527,874266
-0.005,0.030,-1.099,4.137,-3.771,11.206,878276
-0.023,0.022,-1.087,4.672,-3.588,11.481,882285
-0.028,0.010,-1.094,4.947,-2.947,11.832,886295
-0.042,0.004,-1.084,4.931,-2.046,11.130,890305
-0.064,0.005,-1.087,4.611,-1.023,10.901,894315
-0.072,0.002,-1.107,3.679,0.260,11.649,898326
-0.057,0.013,-1.106,2.763,1.542,11.802,902337
-0.054,0.008,-1.104,1.740,2.443,11.908,906346
-0.053,-0.005,-1.116,0.824,2.916,11.542,910355
-0.043,-0.002,-1.102,-0.198,3.466,11.359,914365
-0.045,-0.009,-1.104,-1.435,4.046,11.176,918374
-0.044,0.004,-1.123,-2.519,3.863,10.794,922384
-0.035,0.005,-1.115,-3.618,3.420,9.863,926394
-0.032,0.011,-1.116,-4.611,2.580,8.641,930404
-0.041,0.006,-1.104,-5.099,2.137,8.061,934414
-0.045,0.009,-1.119,-5.679,2.061,7.053,938423
-0.047,0.013,-1.110,-5.740,2.046,5.725,942434
-0.037,0.015,-1.115,-6.168,1.756,4.122,946443
-0.043,0.030,-1.107,-6.260,1.496,3.649,950452
-0.028,0.032,-1.102,-6.168,0.901,2.931,954462
-0.053,0.017,-1.130,-6.427,0.656,2.626,958472
-0.045,0.006,-1.111,-6.290,0.931,1.527,962482
-0.054,0.014,-1.120,-6.015,0.931,0.962,966492
-0.031,-0.006,-1.115,-5.618,1.053,-2.015,970502
-0.037,0.021,-1.116,-5.771,0.504,-3.191,974512
-0.075,0.029,-1.117,-5.206,0.351,-0.901,978522
-0.083,0.026,-1.123,-4.458,0.519,0.947,982532
-0.066,0.006,-1.124,-4.000,0.962,1.802,986543
-0.054,0.007,-1.116,-3.252,1.313,0.794,990552
-0.058,0.009,-1.111,-2.718,1.084,-0.244,994562
-0.023,0.015,-1.120,-3.069,0.656,-1.298,998572
-0.039,0.004,-1.138,-2.794,0.214,-0.580,1002582
-0.051,0.017,-1.112,-2.260,-0.031,-0.214,1006593
-0.046,0.012,-1.126,-2.473,0.122,0.763,1010602
-0.027,0.009,-1.122,-2.229,-0.046,0.519,1014612
-0.023,-0.006,-1.128,-2.504,-0.061,-0.305,1018622
-0.023,-0.006,-1.132,-2.641,-0.229,-0.855,1022642
-0.011,-0.007,-1.128,-3.221,-0.794,-1.954,1026652
0.016,0.001,-1.113,-3.435,-1.527,-5.389,1030662
-0.003,0.000,-1.125,-3.573,-2.336,-6.412,1034672
-0.082,0.003,-1.124,-3.573,-3.160,-4.702,1038682
-0.110,-0.009,-1.117,-3.084,-2.824,-0.092,1042699
-0.071,-0.008,-1.114,-2.794,-2.061,1.588,1046708
-0.023,-0.003,-1.116,-1.908,-2.198,-0.412,1050717
-0.029,-0.000,-1.117,-1.954,-2.168,-1.664,1054727
-0.054,-0.015,-1.113,-2.489,-2.443,-1.191,1058734
-0.055,-0.026,-1.131,-2.626,-2.122,0.809,1062744
-0.023,-0.021,-1.115,-2.656,-2.412,-0.260,1066753
-0.043,-0.014,-1.126,-2.901,-2.046,-0.580,1070762
-0.074,-0.010,-1.115,-2.611,-1.649,0.626,1074772
-0.076,-0.023,-1.127,-2.931,-0.855,2.290,1078781
-0.072,-0.015,-1.108,-2.672,-0.198,3.221,1082791
-0.080,-0.021,-1.122,-2.412,0.580,4.611,1086801
-0.028,-0.007,-1.122,-2.916,0.702,3.069,1090812
-0.023,-0.013,-1.108,-2.244,0.809,1.802,1094821
-0.027,-0.011,-1.123,-2.489,0.580,1.618,1098831
-0.047,0.003,-1.111,-2.260,0.489,2.672,1102841
-0.063,-0.009,-1.118,-2.214,0.992,3.756,1106851
-0.060,-0.014,-1.104,-1.985,1.664,4.275,1110861
-0.067,-0.024,-1.118,-1.817,2.153,5.176,1114871
-0.063,-0.016,-1.109,-1.832,2.473,5.282,1118881
-0.054,-0.021,-1.111,-1.756,3.298,5.084,1122892
-0.026,-0.025,-1.110,-1.924,3.817,3.191,1126902
-0.031,-0.018,-1.124,-2.412,3.771,1.466,1130912
-0.059,-0.019,-1.097,-2.595,3.466,1.786,1134923
-0.080,-0.010,-1.114,-2.702,4.031,4.702,1138932
-0.073,-0.016,-1.102,-3.038,5.496,6.565,1142952
-0.053,-0.017,-1.104,-3.115,6.305,7.420,1146962
-0.046,-0.015,-1.113,-3.496,6.122,7.008,1150972
-0.038,-0.011,-1.112,-3.756,5.435,6.275,1154982
-0.045,-0.008,-1.108,-3.756,5.634,6.275,1158992
-0.047,-0.013,-1.107,-3.725,5.695,7.221,1163011
-0.045,-0.010,-1.108,-3.466,5.603,7.725,1167021
-0.034,-0.020,-1.106,-3.191,5.588,7.802,1171032
-0.039,-0.014,-1.108,-3.084,5.099,7.420,1175041
-0.031,-0.013,-1.103,-3.191,4.580,6.885,1179051
-0.031,-0.005,-1.111,-3.344,4.107,5.969,1183067
-0.028,-0.016,-1.112,-3.771,3.664,5.557,1187077
-0.040,-0.018,-1.116,-4.122,3.969,5.649,1191088
-0.049,-0.018,-1.107,-4.519,4.198,5.878,1195097
-0.045,-0.013,-1.108,-4.748,4.885,6.031,1199106
-0.039,-0.009,-1.102,-4.779,5.160,5.969,1203116
-0.032,-0.011,-1.103,-4.504,5.115,5.863,1207125
-0.015,-0.007,-1.118,-4.427,5.023,4.702,1211134
-0.012,-0.006,-1.111,-3.954,4.641,3.481,1215144
-0.036,-0.006,-1.125,-4.214,4.229,4.260,1219154
-0.046,-0.004,-1.115,-4.443,4.290,5.649,1223163
-0.048,0.000,-1.107,-4.580,4.809,6.885,1227173
-0.053,-0.016,-1.122,-4.489,5.298,7.893,1231184
-0.042,-0.028,-1.115,-5.053,5.924,8.000,1235193
-0.035,-0.020,-1.120,-5.145,6.656,7.725,1239203
-0.031,-0.013,-1.121,-5.817,6.702,7.634,1243221
-0.025,-0.017,-1.116,-6.321,6.962,7.496,1247232
-0.022,-0.005,-1.114,-6.260,7.435,7.542,1251242
-0.019,0.001,-1.112,-6.122,7.405,7.435,1255251
-0.013,0.004,-1.120,-5.435,7.405,6.992,1259261
-0.009,0.010,-1.117,-4.672,6.748,7.160,1263279
-0.008,0.006,-1.124,-3.985,6.137,7.405,1267289
-0.007,0.001,-1.124,-3.893,5.954,7.221,1271299
-0.002,-0.003,-1.122,-3.496,4.931,6.901,1275308
-0.000,0.001,-1.133,-3.405,4.473,6.168,1279318
-0.004,-0.005,-1.121,-3.221,4.107,6.321,1283334
-0.022,-0.015,-1.123,-3.405,3.374,7.084,1287345
-0.008,-0.011,-1.126,-4.046,2.840,6.595,1291354
0.007,-0.001,-1.118,-4.443,2.290,5.221,1295364
-0.004,0.002,-1.125,-4.885,2.000,4.641,1299374
0.016,-0.002,-1.115,-5.160,1.817,3.710,1303384
0.004,-0.013,-1.119,-5.557,1.145,3.084,1307394
0.007,0.005,-1.106,-5.695,0.153,2.244,1311405
-0.045,0.004,-1.126,-5.099,-0.031,4.382,1315414
-0.051,0.001,-1.124,-5.527,0.321,7.481,1319424
-0.035,0.011,-1.113,-4.427,0.992,8.687,1323434
-0.020,0.001,-1.131,-4.229,1.298,7.939,1327443
-0.004,-0.007,-1.134,-3.527,1.084,6.351,1331452
0.002,-0.001,-1.131,-2.901,1.145,4.885,1335462
-0.010,0.008,-1.133,-2.901,0.992,5.313,1339472
-0.050,0.016,-1.124,-2.321,1.466,7.084,1343482
-0.036,0.015,-1.124,-2.458,1.832,7.725,1347492
-0.043,0.005,-1.115,-2.382,2.290,8.427,1351502
-0.063,-0.008,-1.124,-2.229,2.840,9.008,1355512
-0.041,-0.016,-1.118,-2.229,3.740,9.023,1359521
-0.030,-0.002,-1.119,-1.908,4.153,9.023,1363532
-0.028,0.004,-1.115,-1.939,4.183,9.115,1367543
-0.026,0.007,-1.122,-2.015,4.351,9.038,1371552
-0.009,0.004,-1.109,-1.817,3.756,8.489,1375561
-0.027,0.013,-1.116,-1.405,3.496,8.672,1379571
-0.032,0.003,-1.115,-1.008,3.298,8.763,1383590
-0.027,0.003,-1.114,-0.458,2.656,9.130,1387600
-0.010,0.009,-1.112,0.137,1.924,9.115,1391610
-0.032,0.009,-1.118,0.550,1.237,9.282,1395620
-0.019,0.012,-1.116,1.237,0.595,9.099,1399630
-0.017,0.028,-1.106,1.924,-0.092,8.168,1403649
-0.010,0.021,-1.109,2.031,-0.794,7.038,1407659
-0.020,0.006,-1.111,1.939,-1.282,6.748,1411668
-0.028,-0.008,-1.109,1.573,-1.252,7.405,1415678
-0.001,0.003,-1.109,1.466,-1.878,5.603,1419688
-0.004,-0.000,-1.109,1.206,-2.153,4.290,1423706
-0.023,-0.002,-1.110,0.748,-2.321,4.351,1427712
-0.038,-0.016,-1.105,0.275,-2.336,5.008,1431722
-0.031,-0.023,-1.132,-1.328,-1.893,4.748,1435732
-0.094,0.017,-1.097,-0.870,-0.870,8.809,1439742
-0.098,-0.010,-1.128,-1.618,1.298,11.756,1443751
-0.069,-0.022,-1.115,-2.153,3.023,11.511,1447760
-0.057,-0.023,-1.117,-2.656,4.092,10.809,1451770
-0.050,-0.017,-1.123,-3.237,4.748,10.626,1455781
-0.053,-0.012,-1.118,-3.588,5.679,10.718,1459790
-0.049,-0.004,-1.114,-4.229,6.855,11.053,1463800
-0.051,-0.005,-1.106,-4.840,7.908,11.282,1467809
-0.044,-0.012,-1.113,-5.542,8.931,10.885,1471819
-0.046,-0.010,-1.114,-5.954,10.443,10.275,1475830
-0.043,-0.007,-1.105,-5.863,11.344,10.168,1479839
-0.037,-0.004,-1.112,-5.466,12.076,9.985,1483859
-0.020,0.000,-1.115,-5.084,12.000,9.634,1487869
-0.017,-0.003,-1.111,-4.565,11.756,9.511,1491878
-0.010,-0.006,-1.118,-3.954,10.962,9.771,1495888
0.000,-0.018,-1.118,-3.908,9.939,9.450,1499898
-0.000,-0.005,-1.111,-3.435,8.870,9.389,1503917
-0.010,-0.009,-1.115,-2.962,7.786,9.252,1507927
-0.011,-0.007,-1.121,-2.885,7.344,9.939,1511938
-0.018,-0.008,-1.124,-2.702,6.397,10.397,1515947
-0.016,-0.006,-1.115,-2.412,6.122,11.084,1519956
-0.017,-0.010,-1.111,-2.260,5.252,11.374,1523966
-0.010,-0.011,-1.113,-2.321,4.366,11.893,1527976
-0.017,-0.016,-1.113,-2.534,3.893,12.321,1531986
-0.013,-0.022,-1.109,-2.656,3.389,12.504,1535997
-0.011,-0.020,-1.112,-2.901,2.977,12.626,1540006
-0.017,-0.027,-1.118,-3.038,2.733,12.794,1544016
-0.018,-0.022,-1.116,-3.557,2.824,12.840,1548026
-0.024,-0.020,-1.119,-4.061,2.855,13.023,1552037
-0.024,-0.025,-1.120,-4.137,3.115,12.992,1556046
-0.030,-0.022,-1.099,-4.305,3.282,12.763,1560056
-0.038,-0.021,-1.113,-4.641,3.878,12.534,1564066
-0.036,-0.012,-1.110,-5.023,4.183,12.550,1568076
-0.031,-0.015,-1.107,-5.298,5.053,12.427,1572086
-0.031,-0.013,-1.107,-5.160,5.649,12.244,1576096
-0.026,-0.014,-1.105,-5.008,5.771,12.427,1580106
-0.015,-0.015,-1.107,-4.855,5.481,12.153,1584116
-0.023,-0.009,-1.105,-4.763,5.298,12.122,1588128
-0.020,-0.016,-1.105,-4.718,5.084,11.725,1592138
-0.011,-0.014,-1.107,-4.351,4.305,11.405,1596148
-0.008,-0.013,-1.110,-4.351,4.305,10.733,1600158
-0.008,-0.013,-1.117,-4.183,3.969,10.443,1604168
-0.004,-0.013,-1.120,-4.290,3.466,9.771,1608178
-0.006,-0.007,-1.111,-4.137,2.870,9.267,1612187
-0.018,-0.011,-1.116,-3.908,2.122,9.374,1616198
-0.019,-0.012,-1.120,-4.107,1.954,9.664,1620207
-0.021,-0.015,-1.113,-4.031,1.634,9.481,1624217
-0.011,-0.012,-1.110,-3.969,1.603,9.115,1628228
-0.031,-0.007,-1.119,-4.046,1.557,9.389,1632237
-0.023,-0.010,-1.110,-4.336,1.588,8.794,1636247
-0.032,-0.012,-1.117,-4.595,2.168,8.473,1640257
-0.035,-0.017,-1.114,-4.794,2.351,8.321,1644267
-0.041,-0.022,-1.114,-5.344,2.885,8.336,1648277
-0.033,-0.013,-1.123,-5.603,3.496,7.679,1652287
-0.038,-0.021,-1.117,-5.893,4.412,7.679,1656297
-0.035,-0.017,-1.118,-6.107,5.313,7.450,1660307
-0.038,-0.015,-1.120,-6.458,6.229,7.221,1664317
-0.031,-0.015,-1.118,-6.427,7.237,7.328,1668327
-0.031,-0.010,-1.123,-6.473,7.664,7.023,1672338
-0.026,-0.006,-1.121,-6.443,8.000,6.870,1676347
-0.021,-0.007,-1.114,-6.168,7.466,6.977,1680357
-0.022,-0.007,-1.114,-5.893,7.695,7.359,1684366
-0.015,0.003,-1.112,-5.450,7.374,7.878,1688376
-0.011,0.003,-1.109,-5.267,7.099,8.427,1692386
-0.005,0.000,-1.113,-4.916,5.985,8.687,1696396
0.000,0.001,-1.098,-4.779,4.962,9.023,1700406
0.000,0.006,-1.105,-4.763,4.244,8.947,1704416
0.002,-0.001,-1.107,-4.672,3.160,9.130,1708425
0.013,0.003,-1.100,-4.901,2.473,9.053,1712435
0.029,0.002,-1.109,-5.221,1.145,8.580,1716444
0.014,-0.001,-1.107,-5.282,0.244,8.473,1720454
0.001,-0.013,-1.107,-5.344,0.275,8.458,1724463
0.006,-0.010,-1.117,-6.107,-0.046,8.000,1728473
0.011,-0.008,-1.105,-6.244,-0.351,7.359,1732483
-0.002,-0.003,-1.108,-6.275,-0.809,7.115,1736493
-0.004,-0.013,-1.110,-6.519,-0.580,7.328,1740503
0.019,-0.006,-1.096,-6.580,-0.809,6.534,1744513
-0.016,-0.007,-1.087,-6.214,-0.550,7.145,1748523
-0.027,-0.001,-1.099,-6.107,0.489,9.115,1752534
-0.018,-0.005,-1.104,-5.710,1.191,9.389,1756543
-0.014,-0.009,-1.099,-5.328,1.603,9.359,1760552
-0.008,-0.002,-1.102,-5.252,1.328,8.840,1764562
0.008,-0.009,-1.104,-5.344,0.687,8.763,1768572
0.009,-0.008,-1.103,-5.344,0.260,8.962,1772582
0.018,-0.015,-1.114,-6.092,-0.122,8.214,1776592
-0.003,-0.011,-1.089,-5.664,-0.718,8.611,1780602
-0.004,-0.010,-1.113,-6.718,-0.779,8.397,1784612
0.012,0.002,-1.099,-6.290,-1.695,6.779,1788622
0.008,0.007,-1.089,-6.458,-2.794,5.847,1792642
-0.049,0.000,-1.110,-6.534,-3.252,8.687,1796652
-0.056,-0.015,-1.096,-6.580,-2.534,10.733,1800662
-0.041,-0.019,-1.095,-6.595,-1.618,10.947,1804672
-0.036,-0.010,-1.090,-6.748,-1.237,10.229,1808682
-0.024,-0.009,-1.103,-7.084,-0.748,10.015,1812699
-0.037,-0.006,-1.098,-7.069,-0.473,10.229,1816708
-0.027,-0.005,-1.103,-7.252,0.351,9.939,1820718
-0.028,-0.005,-1.107,-7.298,0.992,9.740,1824728
-0.030,-0.005,-1.096,-7.359,1.832,9.496,1828734
-0.031,0.002,-1.101,-6.992,2.198,9.298,1832744
-0.025,-0.001,-1.105,-6.977,2.397,8.947,1836753
-0.021,-0.002,-1.104,-7.038,2.733,8.534,1840763
-0.022,-0.001,-1.106,-7.389,2.947,8.321,1844773
-0.019,-0.009,-1.113,-7.588,3.084,8.443,1848785
-0.012,-0.004,-1.110,-7.405,3.084,8.153,1852794
-0.016,-0.008,-1.110,-7.099,2.779,8.351,1856804
-0.024,-0.015,-1.110,-6.641,2.489,8.473,1860813
-0.020,0.000,-1.107,-6.275,2.321,8.687,1864823
-0.019,-0.006,-1.110,-6.443,2.107,8.443,1868832
-0.015,-0.010,-1.125,-6.382,2.137,8.550,1872841
-0.018,-0.015,-1.122,-6.382,2.275,8.947,1876852
-0.018,-0.013,-1.121,-6.427,2.229,8.977,1880861
-0.015,-0.014,-1.115,-6.595,2.427,9.145,1884871
-0.018,-0.014,-1.122,-6.718,2.366,9.130,1888881
-0.020,-0.019,-1.113,-6.718,2.366,9.176,1892892
-0.013,-0.016,-1.127,-6.718,2.275,9.740,1896901
-0.008,-0.018,-1.130,-6.656,2.397,9.817,1900911
-0.011,-0.015,-1.126,-6.504,2.092,9.969,1904921
-0.006,-0.010,-1.125,-6.275,2.061,10.214,1908931
-0.004,-0.013,-1.132,-6.260,1.618,10.137,1912950
0.000,-0.019,-1.132,-6.046,1.359,10.351,1916960
0.000,-0.011,-1.131,-6.183,0.870,10.000,1920970
-0.006,-0.007,-1.126,-5.573,0.687,10.489,1924981
-0.009,-0.015,-1.131,-5.725,0.321,10.870,1928990
-0.010,-0.008,-1.124,-5.527,-0.061,11.160,1933009
-0.013,-0.010,-1.128,-5.420,-0.473,11.679,1937019
-0.000,-0.009,-1.124,-5.389,-0.611,11.618,1941029
-0.002,-0.008,-1.126,-4.885,-0.992,12.046,1945039
-0.005,-0.014,-1.130,-4.931,-1.405,12.366,1949048
-0.007,-0.008,-1.124,-4.427,-1.863,12.397,1953067
0.002,-0.009,-1.121,-4.046,-2.473,12.260,1957077
-0.003,-0.012,-1.121,-3.603,-3.053,12.031,1961087
-0.007,-0.007,-1.120,-3.649,-3.206,12.122,1965097
-0.009,-0.013,-1.115,-3.817,-3.267,11.985,1969107
-0.013,-0.010,-1.123,-3.893,-3.496,11.557,1973116
-0.033,-0.004,-1.123,-3.756,-2.748,11.725,1977126
-0.033,-0.010,-1.121,-3.908,-2.031,11.496,1981136
-0.043,-0.008,-1.116,-3.817,-1.374,11.634,1985146
-0.047,-0.007,-1.114,-4.015,-0.702,11.710,1989156
-0.023,-0.010,-1.116,-4.229,0.000,11.389,1993165
-0.032,-0.011,-1.116,-4.351,0.504,10.962,1997176
-0.035,-0.003,-1.105,-4.366,0.611,10.809,2001185
