acc_x,acc_y,acc_z,gyro_x,gyro_y,gyro_z,time
-0.086,0.024,-1.107,-5.863,3.252,8.122,0
-0.087,0.025,-1.103,-6.092,3.115,7.893,4040
-0.089,0.026,-1.109,-6.427,3.053,7.924,8051
-0.080,0.028,-1.106,-6.626,3.084,7.618,12061
-0.080,0.031,-1.106,-6.519,2.962,7.496,16071
-0.083,0.025,-1.100,-6.504,2.870,7.267,20081
-0.089,0.038,-1.095,-6.031,2.824,6.992,24090
-0.097,0.036,-1.098,-5.740,2.718,6.840,28101
-0.093,0.038,-1.101,-5.221,3.038,6.580,32111
-0.094,0.033,-1.108,-4.702,3.237,6.443,36121
-0.092,0.047,-1.102,-4.092,3.069,6.168,40131
-0.101,0.052,-1.105,-3.389,3.374,6.641,44141
-0.097,0.038,-1.095,-2.656,3.511,6.809,48153
-0.095,0.044,-1.096,-1.771,3.603,6.641,52162
-0.093,0.050,-1.109,-1.069,3.405,6.305,56171
-0.076,0.052,-1.110,-0.260,3.176,5.664,60181
-0.077,0.046,-1.116,0.168,2.809,5.221,64191
-0.076,0.045,-1.111,0.733,2.351,4.534,68201
-0.072,0.037,-1.112,0.412,1.985,4.275,72211
-0.080,0.031,-1.115,0.214,1.603,3.878,76221
-0.082,0.039,-1.110,0.305,1.267,3.420,80232
-0.082,0.034,-1.106,0.229,0.656,3.221,84241
-0.093,0.026,-1.114,-0.412,-0.061,3.969,88252
-0.086,0.023,-1.117,-0.702,-0.183,4.107,92262
-0.073,0.026,-1.110,-0.809,-1.053,3.954,96273
-0.078,0.029,-1.109,-0.824,-1.618,4.000,100282
-0.073,0.026,-1.103,-0.901,-2.214,3.481,104292
-0.070,0.030,-1.098,-0.656,-2.412,2.947,108302
-0.075,0.026,-1.103,-1.023,-3.160,2.947,112312
-0.093,0.023,-1.090,-0.916,-3.389,3.389,116323
-0.101,0.028,-1.108,-1.405,-2.947,3.878,120332
-0.105,0.031,-1.101,-1.389,-2.763,4.183,124342
-0.104,0.034,-1.091,-1.237,-2.183,4.504,128351
-0.119,0.029,-1.092,-1.481,-1.557,5.374,132361
-0.101,0.019,-1.107,-1.756,-1.069,5.176,136372
-0.116,0.026,-1.105,-1.771,-0.244,5.328,140381
-0.104,0.030,-1.102,-2.015,0.351,5.832,144391
-0.112,0.030,-1.096,-1.725,1.359,6.153,148401
-0.109,0.029,-1.102,-1.954,2.122,6.305,152410
-0.091,0.027,-1.099,-1.786,2.168,5.710,156419
-0.101,0.030,-1.101,-1.756,2.718,5.466,160429
-0.081,0.031,-1.103,-1.802,2.840,4.794,164438
-0.090,0.033,-1.112,-1.939,2.977,5.176,168448
-0.077,0.028,-1.100,-2.076,3.328,4.702,172458
-0.086,0.020,-1.111,-2.153,2.947,4.702,176468
-0.079,0.024,-1.105,-2.290,2.733,4.611,180478
-0.083,0.017,-1.115,-2.550,2.595,4.504,184488
-0.088,0.020,-1.102,-3.023,2.305,4.168,188499
-0.093,0.016,-1.103,-3.450,2.366,4.107,192509
-0.085,0.023,-1.104,-3.267,2.000,3.603,196519
-0.089,0.014,-1.103,-3.511,1.985,2.992,200528
-0.076,0.022,-1.109,-3.588,2.122,3.099,204537
-0.091,0.022,-1.091,-3.099,2.092,3.145,208544
-0.079,0.022,-1.101,-3.344,2.321,2.718,212554
-0.090,0.027,-1.102,-3.115,2.321,3.069,216564
-0.085,0.025,-1.110,-3.069,2.366,3.160,220573
-0.079,0.031,-1.111,-2.794,2.397,3.023,224583
-0.090,0.034,-1.119,-2.733,2.550,4.290,228594
-0.085,0.026,-1.113,-2.763,2.779,4.824,232604
-0.077,0.024,-1.108,-2.916,2.733,5.344,236614
-0.068,0.023,-1.106,-2.931,2.626,5.023,240624
-0.082,0.022,-1.117,-3.145,2.473,5.527,244634
-0.062,0.024,-1.119,-3.588,2.672,5.802,248644
-0.070,0.022,-1.107,-3.802,2.824,5.893,252663
-0.078,0.017,-1.119,-4.000,2.718,6.366,256673
-0.083,0.021,-1.124,-4.473,2.809,7.008,260684
-0.080,0.014,-1.109,-4.626,3.145,7.496,264693
-0.073,0.014,-1.119,-4.458,3.099,7.328,268704
-0.063,0.023,-1.117,-4.336,3.160,7.069,272716
-0.062,0.022,-1.112,-4.305,2.992,6.870,276725
-0.071,0.022,-1.104,-3.863,2.656,7.115,280735
-0.074,0.028,-1.111,-3.649,2.641,7.969,284745
-0.075,0.029,-1.104,-2.901,2.672,8.183,288754
-0.075,0.028,-1.107,-2.458,2.092,8.382,292764
-0.075,0.032,-1.116,-2.153,1.725,8.672,296774
-0.068,0.043,-1.107,-1.618,1.573,8.702,300785
-0.074,0.041,-1.106,-1.099,0.916,8.534,304794
-0.080,0.035,-1.108,-0.733,0.595,8.611,308806
-0.076,0.027,-1.106,-0.611,0.824,8.473,312815
-0.060,0.026,-1.120,-0.198,-0.824,8.076,316826
-0.057,0.036,-1.110,-0.748,-0.092,5.649,320835
-0.091,0.021,-1.114,-0.580,-2.015,6.947,324845
-0.091,0.022,-1.106,-1.344,-1.695,8.122,328857
-0.092,0.018,-1.112,-1.756,-0.260,8.351,332866
-0.080,0.011,-1.107,-2.168,-0.153,7.450,336877
-0.097,0.014,-1.114,-2.885,-0.641,7.420,340886
-0.092,0.012,-1.111,-3.863,-0.214,7.099,344896
-0.093,0.010,-1.111,-4.244,0.244,7.191,348906
-0.096,0.016,-1.116,-4.687,0.855,7.282,352920
-0.097,0.017,-1.107,-5.069,1.527,8.031,356930
-0.093,0.021,-1.104,-5.389,1.954,7.756,360941
-0.086,0.019,-1.101,-5.786,1.786,7.130,364950
-0.083,0.019,-1.113,-6.046,2.214,6.687,368960
-0.093,0.025,-1.117,-5.954,2.718,6.870,372979
-0.087,0.024,-1.117,-6.031,3.374,6.260,376990
-0.087,0.032,-1.110,-5.664,3.466,6.092,381000
-0.080,0.036,-1.110,-5.618,3.679,5.634,385009
-0.082,0.030,-1.113,-5.237,3.588,5.160,389019
-0.069,0.033,-1.116,-5.130,3.878,4.672,393038
-0.071,0.037,-1.100,-4.931,3.878,4.122,397048
-0.071,0.033,-1.108,-4.611,3.282,3.511,401058
-0.075,0.030,-1.113,-4.443,3.267,3.053,405067
-0.085,0.034,-1.105,-4.000,2.718,2.656,409077
-0.094,0.037,-1.115,-3.679,2.901,3.511,413087
-0.094,0.036,-1.113,-3.267,2.733,4.092,417097
-0.086,0.031,-1.116,-2.931,2.840,3.863,421107
-0.086,0.033,-1.112,-2.931,2.626,3.695,425117
-0.086,0.032,-1.111,-2.611,2.473,3.710,429127
-0.070,0.034,-1.114,-2.718,2.366,3.115,433136
-0.054,0.034,-1.111,-2.916,1.603,1.282,437146
-0.092,0.025,-1.118,-2.702,1.695,2.229,441157
-0.110,0.033,-1.108,-3.053,1.863,3.099,445166
-0.101,0.019,-1.120,-3.313,2.473,3.725,449176
-0.110,0.024,-1.111,-3.588,3.145,4.153,453185
-0.094,0.022,-1.118,-3.985,3.878,4.122,457195
-0.098,0.027,-1.114,-4.229,4.336,4.321,461206
-0.091,0.023,-1.123,-4.794,4.962,4.397,465215
-0.078,0.025,-1.123,-5.374,5.420,3.878,469225
-0.089,0.025,-1.110,-5.588,5.710,3.893,473244
-0.086,0.024,-1.110,-6.000,6.015,4.031,477254
-0.073,0.023,-1.119,-6.427,6.412,4.000,481264
-0.069,0.029,-1.117,-6.687,6.214,3.450,485273
-0.074,0.030,-1.117,-6.534,6.214,3.328,489283
-0.067,0.027,-1.109,-6.565,5.802,3.344,493302
-0.054,0.029,-1.118,-6.336,5.802,3.084,497313
-0.053,0.026,-1.115,-5.847,5.405,2.855,501322
-0.057,0.031,-1.118,-5.282,4.824,2.840,505331
-0.061,0.031,-1.123,-4.992,4.015,2.794,509341
-0.068,0.031,-1.112,-4.260,3.756,2.626,513351
-0.068,0.034,-1.118,-4.031,3.160,3.023,517361
-0.067,0.034,-1.110,-3.359,2.947,3.527,521371
-0.073,0.033,-1.112,-2.809,2.733,4.137,525381
-0.075,0.033,-1.111,-2.260,2.656,4.504,529391
-0.073,0.035,-1.114,-2.061,2.718,4.336,533401
-0.076,0.033,-1.117,-1.756,2.397,4.595,537411
-0.090,0.025,-1.117,-1.786,2.489,5.221,541421
-0.094,0.019,-1.116,-2.198,2.855,6.015,545430
-0.087,0.016,-1.117,-2.794,3.450,5.924,549440
-0.083,0.014,-1.123,-3.359,3.084,5.618,553450
-0.097,0.017,-1.124,-3.679,3.496,6.443,557459
-0.092,0.015,-1.113,-3.939,3.725,7.023,561468
-0.087,0.012,-1.112,-4.015,3.756,7.496,565478
-0.066,0.026,-1.108,-4.015,3.542,6.840,569488
-0.067,0.024,-1.112,-4.305,3.252,6.672,573497
-0.076,0.026,-1.113,-4.351,3.252,6.794,577508
-0.073,0.022,-1.114,-4.260,2.885,6.427,581517
-0.071,0.027,-1.108,-4.153,2.351,6.031,585526
-0.068,0.024,-1.107,-4.015,1.756,4.885,589536
-0.067,0.019,-1.118,-4.107,1.527,4.260,593545
-0.074,0.025,-1.107,-3.802,1.359,3.863,597555
-0.076,0.019,-1.106,-3.634,0.779,4.061,601565
-0.089,0.022,-1.114,-3.557,1.069,3.985,605575
-0.079,0.023,-1.106,-3.115,0.962,3.557,609585
-0.081,0.026,-1.095,-2.748,0.916,2.947,613605
-0.088,0.024,-1.107,-2.641,1.145,3.206,617614
-0.085,0.025,-1.108,-2.198,1.344,3.817,621623
-0.089,0.012,-1.110,-2.107,1.756,3.847,625632
-0.070,0.020,-1.113,-1.847,1.817,2.977,629642
-0.077,0.026,-1.104,-1.649,1.969,2.931,633660
-0.087,0.025,-1.120,-1.649,2.229,3.695,637670
-0.092,0.017,-1.111,-1.969,3.023,4.641,641680
-0.077,0.014,-1.109,-2.107,3.252,4.809,645690
-0.076,0.015,-1.106,-2.443,3.344,4.366,649700
-0.078,0.012,-1.110,-2.458,3.695,4.351,653717
-0.060,0.021,-1.112,-2.779,3.481,4.015,657722
-0.068,0.026,-1.099,-2.733,3.176,4.443,661733
-0.071,0.023,-1.106,-3.069,3.053,4.153,665742
-0.065,0.020,-1.103,-3.008,3.130,4.015,669751
-0.081,0.024,-1.114,-2.901,3.191,4.565,673761
-0.073,0.025,-1.103,-3.038,2.870,4.779,677770
-0.078,0.021,-1.098,-2.794,3.115,4.992,681780
-0.068,0.015,-1.103,-2.748,2.916,4.687,685790
-0.075,0.012,-1.101,-2.611,2.870,4.412,689800
-0.081,0.012,-1.096,-2.656,2.794,4.641,693809
-0.078,0.018,-1.100,-2.702,2.870,4.641,697818
-0.086,0.017,-1.109,-2.702,3.084,4.916,701828
-0.073,0.008,-1.100,-3.023,3.527,4.748,705839
-0.073,0.013,-1.094,-3.374,4.015,4.824,709848
-0.087,0.010,-1.102,-3.481,4.412,5.298,713868
-0.080,0.000,-1.099,-4.122,4.779,5.328,717879
-0.083,0.006,-1.100,-4.504,5.206,5.450,721889
-0.073,0.014,-1.101,-4.626,5.420,5.511,725898
-0.080,0.013,-1.099,-5.008,5.435,5.710,729914
-0.080,0.007,-1.099,-5.313,5.786,6.061,733924
-0.069,0.004,-1.101,-5.298,5.847,6.046,737934
-0.060,0.009,-1.097,-5.802,5.878,5.588,741944
-0.059,0.004,-1.102,-5.756,5.588,5.267,745954
-0.051,0.014,-1.097,-6.229,5.038,4.901,749964
-0.052,0.011,-1.086,-6.305,4.809,4.824,753974
-0.056,0.005,-1.097,-6.336,4.107,4.244,757984
-0.044,0.016,-1.096,-6.641,3.954,3.450,761994
-0.052,0.020,-1.095,-6.275,3.328,2.794,766003
-0.054,0.015,-1.096,-6.275,2.855,2.168,770013
-0.048,0.011,-1.117,-6.260,2.351,0.840,774022
-0.040,0.023,-1.101,-6.672,1.939,-0.137,778033
-0.087,0.030,-1.100,-6.260,1.985,1.664,782043
-0.098,0.024,-1.112,-6.763,2.779,3.969,786052
-0.084,0.017,-1.108,-6.565,2.733,4.412,790061
-0.070,0.015,-1.114,-6.809,2.565,3.389,794071
-0.072,0.012,-1.110,-7.160,2.595,2.824,798082
-0.077,0.011,-1.104,-7.359,2.214,2.931,802091
-0.071,0.021,-1.113,-7.511,2.366,3.450,806100
-0.075,0.019,-1.110,-7.557,2.565,3.481,810110
-0.080,0.015,-1.104,-7.618,2.641,3.557,814120
-0.074,0.020,-1.119,-7.588,3.084,3.618,818131
-0.073,0.014,-1.112,-7.664,3.176,3.191,822140
-0.088,0.028,-1.113,-7.359,3.496,3.115,826150
-0.083,0.019,-1.113,-7.511,3.542,2.916,830160
-0.078,0.015,-1.113,-7.450,4.260,2.275,834170
-0.066,0.021,-1.107,-7.481,4.275,1.206,838179
-0.046,0.018,-1.112,-7.710,3.985,-0.534,842189
-0.065,0.023,-1.107,-7.435,4.061,-0.931,846200
-0.063,0.031,-1.110,-7.176,3.786,-0.656,850209
-0.073,0.033,-1.106,-6.794,3.450,-0.382,854219
-0.073,0.040,-1.104,-6.351,3.206,-0.260,858230
-0.056,0.039,-1.104,-6.122,2.443,-0.702,862239
-0.056,0.032,-1.102,-6.321,2.153,-1.328,866248
-0.052,0.027,-1.108,-6.397,1.237,-2.229,870258
-0.062,0.027,-1.112,-6.656,0.702,-2.672,874268
-0.055,0.012,-1.110,-7.527,0.275,-3.832,878278
-0.072,0.012,-1.110,-7.695,-0.427,-4.809,882287
-0.071,0.010,-1.117,-8.931,-0.565,-5.298,886297
-0.105,0.029,-1.115,-10.687,-0.458,-3.618,890307
-0.107,0.018,-1.127,-13.313,0.275,-2.336,894317
-0.107,-0.001,-1.130,-15.756,0.855,-1.588,898328
-0.090,-0.002,-1.135,-18.901,1.267,-2.275,902339
-0.077,-0.007,-1.143,-21.878,1.191,-3.939,906348
-0.083,-0.016,-1.135,-24.458,1.435,-4.214,910357
-0.067,-0.025,-1.133,-26.992,1.313,-5.298,914367
-0.056,-0.032,-1.122,-28.626,1.328,-7.557,918376
-0.032,-0.034,-1.115,-30.290,1.145,-11.359,922386
0.029,-0.040,-1.094,-31.649,0.672,-16.351,926396
-0.118,0.077,-1.058,-32.061,0.626,-11.435,930406
-0.119,0.082,-1.101,-30.718,1.573,-6.550,934416
-0.097,0.072,-1.082,-29.191,3.145,-4.748,938425
-0.074,0.049,-1.094,-26.641,4.504,-5.939,942436
-0.049,0.044,-1.094,-24.168,4.580,-8.840,946445
-0.074,0.070,-1.097,-21.496,4.168,-8.214,950454
-0.078,0.090,-1.099,-18.214,3.969,-4.458,954464
-0.074,0.099,-1.106,-15.420,4.198,-1.389,958474
-0.045,0.083,-1.112,-12.733,4.473,-0.687,962484
-0.047,0.076,-1.107,-10.534,3.985,-0.702,966494
-0.040,0.060,-1.113,-9.389,2.779,-0.183,970504
-0.043,0.049,-1.124,-8.076,1.405,0.687,974514
-0.048,0.052,-1.132,-7.282,0.504,1.802,978524
-0.043,0.047,-1.120,-6.916,-0.229,2.626,982534
-0.042,0.044,-1.123,-7.038,-1.053,3.328,986545
-0.046,0.043,-1.117,-7.023,-2.137,3.115,990554
-0.057,0.042,-1.120,-7.282,-2.824,2.519,994564
-0.057,0.048,-1.118,-7.435,-2.992,2.489,998574
-0.071,0.054,-1.118,-7.084,-2.748,3.084,1002584
-0.077,0.051,-1.110,-6.931,-2.397,3.893,1006595
-0.070,0.061,-1.124,-6.718,-2.626,4.229,1010604
-0.071,0.054,-1.117,-6.366,-2.397,4.229,1014614
-0.076,0.063,-1.122,-5.985,-2.000,4.275,1018624
-0.080,0.055,-1.115,-5.511,-1.511,3.893,1022644
-0.074,0.062,-1.119,-4.885,-1.527,3.710,1026654
-0.082,0.059,-1.115,-4.489,-0.885,3.863,1030664
-0.083,0.061,-1.116,-3.679,-0.702,4.290,1034674
-0.078,0.067,-1.117,-3.176,-0.290,4.702,1038684
-0.079,0.061,-1.107,-2.733,0.214,4.809,1042701
-0.072,0.060,-1.112,-2.351,0.443,4.763,1046710
-0.074,0.064,-1.104,-2.290,0.840,4.916,1050719
-0.064,0.055,-1.100,-2.366,0.702,4.992,1054729
-0.068,0.051,-1.104,-2.489,0.931,4.809,1058736
-0.072,0.054,-1.106,-2.580,1.237,4.763,1062746
-0.080,0.042,-1.097,-2.397,1.191,4.824,1066755
-0.076,0.045,-1.109,-2.565,1.359,5.115,1070764
-0.074,0.040,-1.105,-2.382,1.282,5.267,1074774
-0.071,0.045,-1.101,-2.580,1.420,5.206,1078783
-0.061,0.042,-1.100,-2.595,1.267,5.191,1082793
-0.063,0.047,-1.105,-2.687,1.359,4.962,1086803
-0.069,0.044,-1.097,-2.489,1.176,5.130,1090814
-0.062,0.049,-1.099,-2.763,1.557,4.733,1094823
-0.057,0.048,-1.102,-2.504,1.435,4.489,1098833
-0.057,0.043,-1.099,-2.565,1.511,4.122,1102843
-0.063,0.042,-1.097,-2.443,1.695,4.061,1106853
-0.071,0.038,-1.088,-2.473,1.481,3.924,1110863
-0.080,0.040,-1.094,-2.962,1.878,4.000,1114873
-0.097,0.039,-1.085,-2.809,2.458,5.298,1118883
-0.091,0.035,-1.094,-3.405,3.221,6.397,1122894
-0.083,0.038,-1.088,-3.557,3.969,6.702,1126904
-0.087,0.036,-1.097,-4.244,4.656,6.687,1130914
-0.084,0.036,-1.095,-4.412,5.267,6.611,1134925
-0.083,0.035,-1.109,-5.084,5.710,6.412,1138934
-0.066,0.045,-1.097,-5.466,5.847,5.847,1142954
-0.068,0.050,-1.100,-6.275,6.168,5.221,1146964
-0.063,0.052,-1.108,-6.840,6.260,4.718,1150974
-0.059,0.045,-1.103,-7.389,6.687,4.000,1154984
-0.062,0.048,-1.100,-8.137,6.672,3.557,1158994
-0.061,0.038,-1.103,-8.611,6.076,2.779,1163013
-0.061,0.050,-1.102,-9.191,6.092,2.443,1167023
-0.053,0.050,-1.102,-9.466,5.328,1.939,1171034
-0.052,0.054,-1.098,-9.832,5.130,1.786,1175043
-0.041,0.051,-1.095,-9.954,4.901,1.115,1179053
-0.045,0.055,-1.102,-9.679,3.954,0.351,1183069
-0.058,0.057,-1.091,-10.076,3.527,1.023,1187079
-0.062,0.066,-1.080,-10.015,3.191,2.366,1191090
-0.064,0.065,-1.093,-9.634,2.779,3.481,1195099
-0.064,0.049,-1.099,-9.267,2.977,3.969,1199108
-0.048,0.053,-1.095,-9.023,2.183,4.290,1203118
-0.047,0.056,-1.087,-8.779,1.740,4.672,1207127
-0.042,0.056,-1.091,-8.794,0.504,5.115,1211136
-0.037,0.065,-1.085,-8.290,-0.580,6.519,1215146
-0.044,0.062,-1.090,-8.244,-1.344,7.389,1219156
-0.039,0.054,-1.086,-8.290,-2.519,7.893,1223165
-0.031,0.051,-1.081,-7.924,-3.802,7.832,1227175
-0.040,0.045,-1.088,-8.427,-4.580,8.092,1231186
-0.042,0.044,-1.085,-8.763,-5.389,8.321,1235195
-0.042,0.040,-1.081,-8.931,-5.756,8.275,1239205
-0.043,0.039,-1.087,-9.634,-5.771,7.740,1243223
-0.048,0.047,-1.094,-10.092,-6.214,6.901,1247234
-0.072,0.042,-1.090,-10.244,-5.802,6.977,1251244
-0.079,0.054,-1.085,-10.137,-4.947,7.527,1255253
-0.082,0.051,-1.092,-10.198,-4.427,8.260,1259263
-0.083,0.059,-1.082,-9.985,-3.466,8.504,1263281
-0.088,0.065,-1.087,-9.298,-2.489,8.305,1267291
-0.089,0.069,-1.087,-8.687,-1.374,8.366,1271301
-0.093,0.068,-1.091,-8.153,0.061,8.519,1275310
-0.089,0.070,-1.085,-7.344,1.282,8.473,1279320
-0.091,0.068,-1.102,-6.763,2.489,8.351,1283336
-0.083,0.068,-1.090,-6.611,3.023,8.168,1287347
-0.080,0.070,-1.100,-6.427,3.679,7.832,1291356
-0.077,0.066,-1.094,-6.672,3.817,7.802,1295366
-0.075,0.067,-1.101,-6.718,3.634,7.878,1299376
-0.071,0.058,-1.104,-6.901,3.893,7.740,1303386
-0.075,0.046,-1.107,-7.221,3.603,7.786,1307396
-0.071,0.053,-1.109,-7.557,3.496,8.000,1311407
-0.068,0.051,-1.105,-8.198,3.267,7.710,1315416
-0.075,0.052,-1.104,-8.748,2.611,7.634,1319426
-0.065,0.055,-1.110,-9.725,2.489,7.344,1323436
-0.063,0.062,-1.103,-10.321,2.092,7.115,1327445
-0.058,0.059,-1.103,-10.611,1.450,6.153,1331454
-0.059,0.059,-1.108,-11.053,1.344,5.481,1335464
-0.067,0.062,-1.103,-11.160,1.176,5.145,1339474
-0.075,0.063,-1.113,-11.008,1.374,4.779,1343484
-0.077,0.068,-1.103,-10.733,1.542,4.458,1347494
-0.078,0.074,-1.106,-10.397,1.679,4.137,1351504
-0.072,0.071,-1.094,-9.832,2.061,4.031,1355514
-0.070,0.076,-1.113,-9.221,2.412,4.244,1359523
-0.072,0.079,-1.106,-8.351,2.656,4.550,1363534
-0.069,0.085,-1.109,-7.374,2.962,4.611,1367545
-0.066,0.078,-1.110,-6.565,3.038,5.053,1371554
-0.062,0.079,-1.116,-5.710,3.099,4.824,1375563
-0.064,0.067,-1.113,-5.206,3.252,4.840,1379573
-0.061,0.074,-1.129,-4.779,2.992,4.916,1383592
-0.053,0.070,-1.124,-4.260,2.763,4.656,1387602
-0.054,0.069,-1.123,-4.183,2.504,4.397,1391612
-0.047,0.063,-1.122,-4.397,2.092,3.847,1395622
-0.046,0.063,-1.130,-4.595,1.435,3.389,1399632
-0.055,0.062,-1.125,-4.916,1.008,3.573,1403651
-0.057,0.062,-1.125,-5.267,0.748,3.847,1407661
-0.058,0.066,-1.126,-5.679,0.962,4.656,1411670
-0.070,0.058,-1.123,-6.000,0.809,5.924,1415680
-0.074,0.056,-1.118,-6.443,1.267,6.260,1419690
-0.072,0.054,-1.124,-6.504,2.137,6.840,1423708
-0.075,0.062,-1.108,-6.595,2.489,6.992,1427714
-0.068,0.064,-1.115,-7.023,3.145,6.977,1431724
-0.065,0.075,-1.116,-6.779,3.435,6.901,1435734
-0.063,0.073,-1.124,-6.779,3.802,7.069,1439744
-0.067,0.065,-1.112,-6.641,3.908,7.160,1443753
-0.065,0.067,-1.112,-6.351,3.954,7.221,1447762
-0.052,0.071,-1.109,-6.046,3.832,7.252,1451772
-0.051,0.068,-1.117,-5.679,3.282,6.855,1455783
-0.057,0.067,-1.120,-4.931,3.160,6.748,1459792
-0.059,0.072,-1.126,-4.534,2.733,6.947,1463802
-0.045,0.078,-1.115,-3.832,2.290,6.473,1467811
-0.047,0.075,-1.115,-3.237,2.000,6.260,1471821
-0.039,0.072,-1.121,-3.053,1.466,5.802,1475832
-0.041,0.067,-1.129,-2.931,0.870,5.344,1479841
-0.047,0.064,-1.123,-2.840,0.260,5.099,1483861
-0.051,0.058,-1.121,-2.779,0.153,4.641,1487871
-0.056,0.058,-1.119,-3.084,-0.076,4.626,1491880
-0.053,0.053,-1.123,-3.130,-0.107,4.611,1495890
-0.056,0.046,-1.120,-3.618,-0.137,4.611,1499900
-0.071,0.052,-1.129,-4.260,-0.046,5.191,1503919
-0.071,0.053,-1.122,-4.702,0.351,5.359,1507929
-0.067,0.052,-1.124,-5.053,0.748,5.786,1511940
-0.083,0.058,-1.115,-5.344,1.832,5.802,1515949
-0.073,0.047,-1.116,-5.511,2.519,5.878,1519958
-0.081,0.052,-1.115,-5.420,3.618,6.046,1523968
-0.074,0.059,-1.120,-5.725,4.397,5.985,1527978
-0.072,0.061,-1.119,-5.771,5.618,6.229,1531988
-0.070,0.064,-1.119,-5.802,6.519,6.153,1535999
-0.072,0.067,-1.120,-5.817,7.115,6.611,1540008
-0.067,0.064,-1.119,-5.618,7.160,6.122,1544018
-0.058,0.071,-1.118,-5.328,7.130,5.969,1548028
-0.063,0.066,-1.126,-5.099,7.176,5.557,1552039
-0.046,0.072,-1.125,-4.748,7.130,5.679,1556048
-0.041,0.066,-1.119,-4.626,6.534,5.511,1560058
-0.042,0.067,-1.117,-4.458,5.634,5.405,1564068
-0.037,0.065,-1.121,-4.397,5.038,5.252,1568078
-0.033,0.073,-1.121,-4.168,4.305,4.901,1572088
-0.040,0.077,-1.124,-3.817,3.695,4.931,1576098
-0.041,0.068,-1.119,-3.786,3.099,4.672,1580108
-0.042,0.072,-1.122,-3.588,2.611,4.779,1584118
-0.049,0.066,-1.125,-3.389,2.305,4.641,1588130
-0.044,0.069,-1.122,-3.420,1.954,4.718,1592140
-0.046,0.072,-1.115,-3.252,1.756,4.840,1596150
-0.055,0.062,-1.118,-3.130,1.710,5.145,1600160
-0.050,0.063,-1.114,-3.053,1.450,5.344,1604170
-0.062,0.069,-1.122,-3.069,1.588,5.649,1608180
-0.053,0.072,-1.123,-2.855,1.695,5.527,1612189
-0.046,0.057,-1.114,-3.008,1.786,4.962,1616200
-0.049,0.064,-1.108,-3.099,1.725,4.916,1620209
-0.059,0.071,-1.109,-3.145,1.908,5.557,1624219
-0.062,0.071,-1.122,-3.298,2.214,6.137,1628230
-0.060,0.064,-1.115,-3.160,2.458,6.366,1632239
-0.047,0.062,-1.122,-3.282,2.076,6.061,1636249
-0.042,0.059,-1.118,-3.313,1.481,5.786,1640259
-0.038,0.061,-1.115,-3.603,1.313,6.000,1644269
-0.044,0.059,-1.121,-3.939,1.191,6.183,1648279
-0.043,0.059,-1.117,-4.275,0.855,6.076,1652289
-0.043,0.062,-1.115,-4.565,0.107,5.756,1656299
-0.047,0.060,-1.111,-4.489,-0.321,4.824,1660309
-0.052,0.063,-1.118,-4.473,-1.008,4.534,1664319
-0.052,0.061,-1.102,-4.885,-1.435,4.489,1668329
-0.067,0.068,-1.108,-4.458,-1.344,5.008,1672340
-0.069,0.067,-1.103,-4.611,-1.298,5.420,1676349
-0.073,0.058,-1.106,-4.321,-1.298,5.679,1680359
-0.067,0.070,-1.111,-4.015,-1.618,5.893,1684368
-0.073,0.066,-1.113,-3.588,-1.557,5.756,1688378
-0.080,0.069,-1.112,-3.374,-1.496,5.710,1692388
-0.063,0.074,-1.111,-3.298,-1.466,5.374,1696398
-0.061,0.070,-1.120,-3.267,-1.557,4.824,1700408
-0.052,0.071,-1.117,-3.221,-1.435,3.939,1704418
-0.054,0.073,-1.121,-3.084,-1.496,3.496,1708427
-0.070,0.071,-1.121,-2.779,-1.863,2.855,1712437
-0.072,0.066,-1.116,-2.702,-1.817,2.443,1716446
-0.079,0.069,-1.119,-2.504,-1.466,2.382,1720456
-0.077,0.067,-1.123,-2.733,-0.626,2.137,1724465
-0.079,0.057,-1.109,-3.099,-0.214,2.092,1728475
-0.077,0.054,-1.117,-3.237,0.366,1.679,1732485
-0.070,0.061,-1.119,-3.359,0.809,1.756,1736495
-0.071,0.067,-1.115,-3.344,1.298,1.908,1740505
-0.081,0.067,-1.114,-3.374,1.557,2.397,1744515
-0.077,0.067,-1.106,-3.191,2.260,2.626,1748525
-0.081,0.063,-1.107,-3.023,2.763,2.748,1752536
-0.073,0.076,-1.109,-2.641,3.557,3.099,1756545
-0.080,0.064,-1.114,-2.519,3.695,3.435,1760554
-0.071,0.073,-1.104,-2.290,3.893,3.634,1764564
-0.068,0.065,-1.102,-2.000,4.092,3.786,1768574
-0.066,0.065,-1.109,-1.710,4.183,3.679,1772584
-0.056,0.066,-1.107,-1.664,3.969,3.450,1776594
-0.058,0.060,-1.106,-1.573,3.649,3.481,1780604
-0.055,0.056,-1.105,-1.466,3.237,3.206,1784614
-0.061,0.062,-1.106,-1.221,2.794,3.359,1788624
-0.061,0.064,-1.103,-1.206,2.336,3.160,1792644
-0.067,0.059,-1.107,-1.389,2.534,3.191,1796654
-0.072,0.050,-1.116,-1.435,2.687,2.901,1800664
-0.079,0.060,-1.116,-1.542,3.023,3.115,1804674
-0.078,0.059,-1.104,-1.603,3.924,3.252,1808684
-0.071,0.056,-1.111,-1.634,4.595,3.130,1812701
-0.076,0.062,-1.112,-1.893,5.298,3.466,1816710
-0.071,0.061,-1.115,-2.168,5.863,3.527,1820720
-0.076,0.053,-1.113,-2.519,6.366,3.160,1824730
-0.066,0.058,-1.109,-3.008,6.763,3.115,1828736
-0.071,0.055,-1.106,-3.496,7.496,3.053,1832746
-0.065,0.046,-1.110,-3.863,7.817,3.206,1836755
-0.070,0.053,-1.106,-4.290,8.229,3.298,1840765
-0.060,0.061,-1.106,-4.244,8.412,3.359,1844775
-0.057,0.050,-1.100,-4.122,8.366,3.389,1848787
-0.054,0.060,-1.107,-4.061,8.687,3.328,1852796
-0.048,0.056,-1.094,-3.817,8.840,3.374,1856806
-0.047,0.059,-1.108,-3.863,8.351,3.634,1860815
-0.044,0.051,-1.103,-3.573,7.786,3.924,1864825
-0.041,0.061,-1.109,-3.053,7.053,3.725,1868834
-0.039,0.057,-1.104,-2.504,6.092,3.511,1872843
-0.035,0.062,-1.095,-1.954,5.542,3.237,1876854
-0.031,0.060,-1.112,-1.481,4.794,3.313,1880863
-0.042,0.065,-1.106,-1.038,4.015,3.115,1884873
-0.042,0.057,-1.113,-0.840,3.328,2.962,1888883
-0.049,0.052,-1.102,-0.656,2.656,3.313,1892894
-0.055,0.055,-1.114,-0.901,2.275,3.115,1896903
-0.054,0.056,-1.105,-1.252,2.183,3.008,1900913
-0.064,0.055,-1.112,-1.511,2.336,2.977,1904923
-0.063,0.049,-1.111,-1.908,2.840,2.931,1908933
-0.069,0.047,-1.115,-2.183,3.084,2.748,1912952
-0.063,0.052,-1.118,-2.580,3.603,2.641,1916962
-0.061,0.048,-1.119,-3.206,4.198,2.412,1920972
-0.064,0.054,-1.105,-3.634,4.244,2.046,1924983
-0.057,0.053,-1.104,-3.985,5.038,1.771,1928992
-0.065,0.058,-1.110,-3.847,5.634,1.618,1933011
-0.058,0.050,-1.106,-3.878,6.107,1.481,1937021
-0.053,0.057,-1.107,-3.985,6.153,1.191,1941031
-0.047,0.052,-1.111,-4.031,6.275,0.885,1945041
-0.050,0.057,-1.103,-4.122,5.924,0.641,1949050
-0.039,0.058,-1.105,-4.015,5.756,0.656,1953069
-0.036,0.051,-1.095,-3.634,5.573,0.534,1957079
-0.043,0.053,-1.093,-3.176,5.160,0.565,1961089
-0.036,0.053,-1.103,-2.840,4.687,0.504,1965099
-0.035,0.060,-1.092,-2.489,4.183,0.656,1969109
-0.033,0.054,-1.106,-2.595,4.107,0.763,1973118
-0.037,0.053,-1.105,-2.550,4.244,1.176,1977128
-0.037,0.054,-1.114,-2.763,4.412,1.695,1981138
-0.034,0.053,-1.111,-2.962,4.198,1.756,1985148
-0.027,0.043,-1.116,-3.084,4.397,1.847,1989158
-0.036,0.049,-1.111,-3.221,4.382,1.924,1993167
-0.034,0.049,-1.100,-3.130,4.519,2.153,1997178
-0.032,0.053,-1.108,-3.115,4.641,2.305,2001187
