acc_x,acc_y,acc_z,gyro_x,gyro_y,gyro_z,time
0.149,0.044,-1.117,-5.908,0.687,-0.733,808146744
0.144,0.046,-1.106,-6.443,0.443,-0.321,808150782
0.142,0.043,-1.116,-6.992,0.412,-0.305,808154794
0.137,0.052,-1.124,-7.008,0.336,-0.321,808158805
0.142,0.056,-1.115,-6.534,0.443,-0.275,808162816
0.134,0.052,-1.112,-6.290,0.473,-0.107,808166827
0.135,0.056,-1.115,-5.695,0.534,-0.061,808170838
0.135,0.049,-1.113,-5.389,0.824,0.015,808174846
0.133,0.045,-1.114,-4.947,0.824,-0.015,808178857
0.139,0.053,-1.111,-4.794,1.115,0.122,808182869
0.134,0.042,-1.120,-5.008,1.191,0.168,808186880
0.146,0.053,-1.119,-4.443,1.160,0.366,808190891
0.143,0.047,-1.122,-4.107,1.206,0.656,808194904
0.155,0.049,-1.115,-3.817,0.931,0.641,808198915
0.145,0.036,-1.118,-3.603,1.221,0.656,808202926
0.153,0.040,-1.118,-4.000,1.237,0.687,808206937
0.146,0.038,-1.119,-4.458,1.328,0.687,808210948
0.150,0.039,-1.113,-4.840,1.496,0.382,808214960
0.159,0.035,-1.118,-5.008,1.420,0.290,808218970
0.155,0.038,-1.115,-4.809,1.511,0.137,808222981
0.160,0.030,-1.116,-5.038,1.527,-0.305,808226992
0.154,0.028,-1.124,-5.344,1.603,-0.397,808231003
0.162,0.027,-1.128,-5.710,1.450,-0.641,808235015
0.162,0.028,-1.129,-6.427,1.237,-0.489,808239025
0.149,0.030,-1.118,-6.794,0.977,-0.733,808243036
0.156,0.034,-1.122,-6.763,1.115,-0.855,808247047
0.148,0.035,-1.121,-6.580,1.313,-0.748,808251058
0.150,0.043,-1.113,-6.443,1.450,-0.870,808255069
0.147,0.042,-1.121,-6.641,1.450,-0.809,808259080
0.145,0.038,-1.121,-6.870,1.527,-0.809,808263091
0.151,0.038,-1.117,-7.053,1.282,-0.641,808267102
0.150,0.043,-1.122,-7.267,1.527,-0.763,808271113
0.154,0.040,-1.121,-7.115,1.527,-0.931,808275124
0.157,0.042,-1.113,-6.779,1.496,-1.053,808279135
0.149,0.048,-1.118,-6.275,1.252,-0.992,808283147
0.146,0.045,-1.112,-6.122,1.237,-0.947,808287158
0.146,0.045,-1.109,-6.168,1.664,-1.008,808291169
0.146,0.050,-1.105,-6.275,1.450,-1.053,808295180
0.143,0.038,-1.111,-6.305,1.542,-1.191,808299191
0.145,0.048,-1.114,-6.046,2.122,-1.160,808303203
0.136,0.046,-1.118,-5.481,2.183,-0.885,808307214
0.142,0.046,-1.107,-5.176,2.641,-0.824,808311225
0.146,0.048,-1.107,-4.885,2.626,-0.519,808315236
0.140,0.051,-1.112,-4.794,2.473,-0.718,808319247
0.140,0.050,-1.109,-4.947,2.519,-0.351,808323258
0.144,0.049,-1.108,-4.947,2.382,-0.214,808327269
0.143,0.051,-1.114,-4.794,2.473,-0.321,808331280
0.149,0.052,-1.115,-4.336,2.550,-0.229,808335287
0.149,0.048,-1.117,-4.061,2.153,-0.214,808339298
0.143,0.040,-1.115,-4.107,1.908,-0.153,808343309
0.153,0.044,-1.107,-4.412,1.740,-0.046,808347321
0.156,0.045,-1.112,-4.809,1.573,-0.382,808351332
0.151,0.042,-1.113,-5.160,1.313,-0.092,808355345
0.154,0.046,-1.108,-5.176,1.252,-0.534,808359356
0.142,0.043,-1.114,-4.931,1.328,-0.519,808363367
0.145,0.045,-1.109,-4.748,1.176,-0.321,808367379
0.138,0.042,-1.114,-4.870,1.298,-0.427,808371390
0.144,0.046,-1.114,-4.992,1.664,-0.412,808375401
0.137,0.044,-1.113,-5.267,1.847,-0.595,808379422
0.137,0.046,-1.112,-5.282,2.351,-0.626,808383433
0.147,0.052,-1.105,-5.115,2.641,-0.412,808387444
0.140,0.048,-1.116,-4.763,2.580,-0.366,808391455
0.139,0.045,-1.113,-4.504,2.748,-0.351,808395467
0.143,0.054,-1.109,-4.443,2.580,-0.229,808399477
0.147,0.047,-1.116,-4.595,2.687,-0.198,808403489
0.151,0.051,-1.116,-4.809,2.458,0.214,808407500
0.138,0.049,-1.121,-4.977,2.809,0.183,808411511
0.146,0.045,-1.115,-4.809,2.626,0.427,808415523
0.142,0.048,-1.112,-4.611,2.794,0.519,808419535
0.153,0.042,-1.117,-4.427,2.718,0.580,808423546
0.152,0.047,-1.119,-4.473,2.718,0.519,808427557
0.148,0.043,-1.112,-4.626,2.611,0.763,808431569
0.156,0.039,-1.117,-5.130,2.626,0.580,808435580
0.152,0.043,-1.115,-5.466,2.382,0.626,808439591
0.160,0.046,-1.105,-5.405,2.031,0.550,808443602
0.149,0.050,-1.106,-5.405,2.046,0.626,808447613
0.157,0.050,-1.107,-5.053,1.695,0.504,808451624
0.157,0.053,-1.109,-4.916,1.618,0.412,808455636
0.163,0.046,-1.117,-5.038,1.450,0.458,808459646
0.156,0.042,-1.105,-5.374,1.405,0.641,808463657
0.155,0.042,-1.115,-5.481,1.008,0.351,808467668
0.159,0.045,-1.107,-5.267,1.359,0.244,808471679
0.159,0.041,-1.104,-4.947,1.389,0.290,808475690
0.156,0.043,-1.108,-4.733,1.618,-0.076,808479710
0.158,0.040,-1.111,-4.916,1.618,-0.046,808483721
0.161,0.046,-1.115,-5.038,1.756,-0.397,808487733
0.155,0.038,-1.114,-5.313,1.466,-0.214,808491743
0.149,0.035,-1.113,-5.374,1.832,-0.489,808495754
0.154,0.045,-1.115,-5.374,1.847,-0.504,808499775
0.162,0.038,-1.116,-5.023,1.817,-0.458,808503786
0.157,0.041,-1.115,-5.038,1.893,-0.656,808507798
0.160,0.042,-1.114,-4.931,1.847,-0.504,808511808
0.156,0.048,-1.110,-5.084,1.374,-0.779,808515819
0.163,0.042,-1.122,-5.328,1.588,-0.794,808519837
0.161,0.040,-1.113,-5.420,1.313,-0.885,808523849
0.165,0.043,-1.113,-5.359,1.038,-0.992,808527860
0.151,0.042,-1.118,-5.008,1.053,-0.901,808531871
0.154,0.041,-1.114,-4.947,0.947,-1.145,808535883
0.154,0.042,-1.114,-4.687,1.237,-1.115,808539893
0.142,0.041,-1.113,-4.687,1.435,-1.176,808543904
0.149,0.050,-1.114,-4.931,1.466,-1.237,808547916
0.148,0.057,-1.113,-5.206,1.664,-1.282,808551926
0.149,0.044,-1.117,-4.992,1.603,-1.221,808555937
0.152,0.044,-1.119,-4.519,1.878,-1.328,808559957
0.151,0.040,-1.112,-4.260,2.031,-1.420,808563968
0.148,0.046,-1.117,-4.198,2.137,-1.328,808567979
0.142,0.043,-1.128,-4.443,1.756,-1.359,808571990
0.148,0.040,-1.111,-4.885,1.588,-1.160,808576001
0.145,0.038,-1.119,-5.145,1.405,-0.977,808580022
0.149,0.042,-1.116,-5.176,1.359,-1.099,808584033
0.152,0.042,-1.111,-5.221,1.435,-1.053,808588044
0.150,0.044,-1.118,-5.023,1.389,-0.962,808592056
0.151,0.043,-1.113,-5.145,1.298,-1.145,808596067
0.152,0.042,-1.116,-5.481,0.626,-1.023,808600085
0.150,0.042,-1.119,-6.076,0.565,-1.099,808604095
0.151,0.044,-1.106,-6.336,0.290,-1.267,808608106
0.155,0.036,-1.100,-6.443,0.137,-1.496,808612117
0.148,0.043,-1.101,-5.939,-0.015,-1.344,808616128
0.151,0.045,-1.109,-5.695,-0.458,-1.328,808620139
0.149,0.045,-1.106,-5.664,-0.351,-1.603,808624150
0.152,0.038,-1.111,-5.756,-0.565,-1.542,808628161
0.154,0.041,-1.111,-5.817,-0.534,-1.924,808632172
0.149,0.046,-1.101,-5.771,-0.672,-1.954,808636184
0.147,0.047,-1.094,-5.527,-0.534,-2.107,808640195
0.146,0.052,-1.108,-5.145,-0.412,-2.275,808644206
0.139,0.047,-1.113,-4.672,-0.153,-2.153,808648217
0.139,0.053,-1.100,-4.305,-0.275,-2.366,808652228
0.141,0.044,-1.111,-4.229,-0.122,-2.595,808656239
0.142,0.051,-1.105,-4.382,0.183,-2.397,808660249
0.142,0.046,-1.104,-4.504,0.458,-2.595,808664260
0.139,0.046,-1.107,-4.519,0.656,-2.595,808668271
0.134,0.045,-1.112,-4.153,0.718,-2.824,808672282
0.138,0.050,-1.113,-4.000,0.595,-2.809,808676293
0.131,0.046,-1.115,-3.679,0.809,-2.794,808680304
0.135,0.049,-1.097,-3.649,0.534,-2.489,808684316
0.136,0.048,-1.114,-3.817,0.290,-2.595,808688327
0.133,0.052,-1.105,-4.290,0.229,-2.702,808692339
0.133,0.044,-1.118,-4.336,0.137,-2.611,808696350
0.119,0.050,-1.114,-3.985,0.046,-2.595,808700369
0.119,0.046,-1.117,-3.557,0.321,-2.718,808704380
0.107,0.048,-1.124,-3.450,0.595,-2.626,808708391
0.105,0.046,-1.125,-3.756,0.840,-2.702,808712402
0.101,0.048,-1.131,-3.939,1.466,-2.901,808716414
0.096,0.040,-1.137,-4.534,2.198,-2.687,808720435
0.088,0.036,-1.135,-4.809,2.794,-3.099,808724446
0.091,0.038,-1.140,-4.992,3.267,-3.206,808728458
0.087,0.033,-1.143,-4.931,3.695,-3.573,808732468
0.086,0.028,-1.145,-5.053,4.198,-3.496,808736479
0.085,0.010,-1.142,-5.466,4.641,-3.573,808740492
0.098,0.008,-1.149,-6.443,4.870,-3.634,808744503
0.094,0.005,-1.145,-7.359,4.992,-3.557,808748514
0.101,0.002,-1.144,-7.954,4.733,-3.695,808752525
0.086,0.000,-1.146,-8.489,4.779,-3.832,808756537
0.084,-0.006,-1.150,-9.115,4.748,-4.229,808760549
0.078,-0.010,-1.165,-10.366,4.992,-5.099,808764559
0.067,-0.022,-1.146,-12.015,5.130,-5.832,808768570
0.070,-0.024,-1.153,-13.710,6.214,-7.374,808772581
0.063,-0.026,-1.148,-14.794,7.282,-9.130,808776592
0.050,-0.024,-1.147,-15.756,8.641,-10.214,808780613
0.036,-0.026,-1.147,-17.115,9.939,-11.771,808784624
0.029,-0.019,-1.154,-17.863,11.847,-13.267,808788635
0.011,-0.025,-1.163,-19.069,14.412,-14.656,808792646
-0.001,-0.038,-1.161,-20.214,17.252,-15.802,808796665
-0.010,-0.034,-1.169,-21.450,20.305,-16.611,808800676
-0.017,-0.036,-1.154,-22.061,23.023,-17.267,808804687
-0.015,-0.035,-1.150,-22.260,25.099,-17.359,808808698
-0.016,-0.034,-1.162,-21.924,26.397,-17.542,808812709
-0.007,-0.032,-1.151,-21.267,27.878,-17.817,808816720
-0.011,-0.029,-1.151,-20.779,28.840,-17.969,808820731
-0.011,-0.032,-1.162,-20.076,30.290,-18.366,808824742
-0.025,-0.034,-1.173,-19.618,31.115,-18.641,808828753
-0.039,-0.024,-1.172,-18.702,32.305,-18.840,808832764
-0.053,-0.026,-1.180,-17.679,33.511,-18.718,808836775
-0.079,-0.036,-1.185,-16.534,35.542,-18.092,808840786
-0.077,-0.040,-1.194,-15.511,37.817,-17.160,808844797
-0.088,-0.048,-1.205,-15.008,40.107,-16.168,808848808
-0.080,-0.045,-1.204,-14.061,42.107,-15.588,808852819
-0.095,-0.047,-1.219,-13.084,43.588,-15.374,808856830
-0.103,-0.046,-1.222,-11.847,44.931,-14.809,808860841
-0.113,-0.049,-1.226,-11.084,45.878,-14.534,808864853
-0.113,-0.054,-1.226,-10.641,46.977,-13.771,808868864
-0.120,-0.063,-1.235,-10.519,47.756,-13.084,808872875
-0.121,-0.060,-1.236,-10.473,48.244,-12.229,808876886
-0.124,-0.062,-1.234,-10.321,48.840,-11.282,808880897
-0.120,-0.073,-1.236,-10.702,49.359,-9.878,808884909
-0.124,-0.081,-1.235,-11.542,50.260,-7.908,808888920
-0.120,-0.083,-1.250,-12.382,51.389,-6.061,808892931
-0.113,-0.094,-1.259,-13.679,51.634,-3.832,808896942
-0.111,-0.102,-1.251,-14.580,51.954,-1.847,808900953
-0.102,-0.109,-1.250,-16.015,51.710,-0.397,808904967
-0.090,-0.117,-1.259,-17.847,51.298,1.038,808908978
-0.084,-0.124,-1.253,-19.588,50.305,2.580,808912989
-0.074,-0.119,-1.261,-21.069,48.794,4.412,808917000
-0.057,-0.117,-1.264,-21.969,46.901,6.366,808921011
-0.047,-0.130,-1.254,-23.786,44.321,8.168,808925023
-0.026,-0.118,-1.240,-25.634,41.542,9.863,808929034
-0.021,-0.115,-1.256,-26.473,38.244,11.313,808933045
-0.001,-0.115,-1.253,-26.885,34.076,12.947,808937056
0.012,-0.110,-1.252,-27.420,29.405,14.855,808941067
0.019,-0.131,-1.250,-28.244,24.611,16.901,808945080
0.024,-0.123,-1.244,-29.450,20.092,19.069,808949091
0.022,-0.127,-1.247,-30.183,15.710,21.267,808953102
0.021,-0.123,-1.249,-31.130,11.420,23.267,808957113
0.016,-0.126,-1.233,-32.153,7.008,25.405,808961124
0.018,-0.128,-1.236,-33.374,3.069,27.603,808965135
0.015,-0.126,-1.228,-34.076,-0.458,29.679,808969146
0.017,-0.125,-1.229,-34.672,-4.168,31.435,808973157
0.007,-0.120,-1.212,-35.679,-7.145,32.809,808977168
-0.012,-0.120,-1.229,-36.748,-9.511,34.305,808981179
-0.029,-0.109,-1.225,-37.206,-10.427,36.015,808985190
-0.037,-0.107,-1.225,-37.389,-10.947,37.618,808989201
-0.049,-0.107,-1.226,-37.954,-10.992,39.313,808993213
-0.056,-0.099,-1.228,-38.672,-10.718,41.069,808997223
-0.054,-0.097,-1.223,-38.458,-9.893,42.550,809001234
-0.058,-0.092,-1.218,-37.557,-9.481,44.000,809005245
-0.042,-0.095,-1.224,-37.206,-9.405,45.450,809009256
-0.031,-0.089,-1.221,-37.053,-9.679,46.763,809013267
-0.022,-0.088,-1.219,-36.366,-10.290,48.336,809017278
-0.025,-0.084,-1.223,-35.359,-10.412,50.122,809021289
-0.024,-0.077,-1.215,-34.672,-10.748,52.275,809025297
-0.015,-0.074,-1.219,-34.641,-11.206,54.504,809029308
-0.006,-0.079,-1.219,-34.412,-12.153,56.412,809033319
0.000,-0.080,-1.214,-33.756,-13.084,58.275,809037330
0.013,-0.079,-1.221,-33.603,-13.893,60.031,809041341
0.013,-0.082,-1.209,-33.557,-14.153,61.985,809045353
0.025,-0.090,-1.207,-33.893,-15.008,64.031,809049363
0.020,-0.085,-1.205,-33.725,-16.122,66.015,809053375
0.029,-0.087,-1.199,-34.626,-16.947,68.290,809057385
0.031,-0.087,-1.205,-35.710,-17.542,70.656,809061396
0.046,-0.084,-1.202,-36.397,-18.366,72.931,809065407
0.052,-0.087,-1.204,-37.832,-19.145,75.282,809069428
0.062,-0.087,-1.197,-39.466,-20.107,77.344,809073439
0.062,-0.092,-1.198,-41.160,-21.038,79.405,809077450
0.069,-0.081,-1.205,-42.183,-22.092,81.527,809081461
0.074,-0.077,-1.202,-43.740,-23.191,83.710,809085475
0.079,-0.077,-1.203,-45.878,-24.687,85.756,809089490
0.115,-0.070,-1.201,-47.481,-26.733,87.740,809093501
0.126,-0.062,-1.201,-48.061,-28.962,89.634,809097512
0.141,-0.064,-1.210,-48.916,-31.878,91.252,809101523
0.165,-0.055,-1.203,-50.458,-34.779,92.534,809105534
0.162,-0.047,-1.188,-51.176,-37.832,93.542,809109545
0.160,-0.031,-1.191,-51.634,-40.351,94.427,809113556
0.145,-0.022,-1.192,-52.076,-42.794,95.618,809117567
0.150,-0.015,-1.190,-52.595,-45.115,96.733,809121578
0.143,-0.007,-1.191,-52.840,-46.962,97.939,809125590
0.145,0.001,-1.192,-52.779,-48.000,98.947,809129600
0.155,0.004,-1.181,-53.053,-49.481,99.771,809133611
0.165,0.019,-1.181,-53.405,-49.802,100.031,809137622
0.161,0.023,-1.186,-52.809,-49.679,100.473,809141633
0.156,0.027,-1.183,-52.382,-49.069,100.809,809145644
0.156,0.040,-1.175,-52.107,-48.779,101.649,809149655
0.151,0.038,-1.179,-51.817,-48.076,102.901,809153666
0.155,0.041,-1.167,-51.664,-47.298,103.939,809157677
0.164,0.047,-1.170,-51.527,-45.969,105.053,809161688
0.167,0.045,-1.161,-51.756,-44.412,106.397,809165699
0.176,0.052,-1.151,-51.618,-42.992,107.740,809169719
0.183,0.059,-1.136,-50.641,-42.641,109.420,809173730
0.183,0.078,-1.135,-49.664,-42.260,111.252,809177742
0.185,0.088,-1.144,-49.053,-41.130,112.885,809181753
0.198,0.096,-1.131,-48.916,-40.489,113.939,809185764
0.193,0.112,-1.122,-48.061,-39.725,114.763,809189785
0.196,0.121,-1.095,-47.481,-39.435,115.145,809193796
0.188,0.137,-1.098,-47.221,-38.229,115.389,809197807
0.172,0.144,-1.082,-46.611,-36.885,115.481,809201818
0.171,0.148,-1.088,-45.313,-35.817,115.420,809205829
0.169,0.160,-1.083,-43.618,-33.740,115.084,809209841
0.177,0.162,-1.082,-41.893,-32.168,114.947,809213852
0.190,0.156,-1.070,-40.794,-31.221,114.748,809217863
0.194,0.152,-1.070,-40.046,-30.046,114.290,809221874
0.197,0.139,-1.059,-39.740,-28.382,113.847,809225885
0.195,0.135,-1.054,-40.000,-25.878,113.450,809229895
0.188,0.134,-1.051,-40.962,-23.511,113.603,809233906
0.187,0.135,-1.040,-41.573,-21.176,113.771,809237917
0.195,0.139,-1.022,-41.908,-18.947,114.718,809241928
0.212,0.146,-1.032,-42.198,-17.756,115.893,809245939
0.246,0.141,-1.015,-42.687,-17.115,117.130,809249959
0.276,0.139,-1.009,-42.947,-17.954,118.473,809253971
0.313,0.133,-0.996,-42.656,-20.122,119.496,809257981
0.358,0.135,-0.986,-42.031,-22.595,120.458,809261992
0.388,0.132,-0.974,-41.420,-25.450,121.634,809266004
0.407,0.136,-0.969,-40.595,-27.939,122.595,809270023
0.425,0.130,-0.969,-40.473,-30.748,123.221,809274035
0.429,0.141,-0.982,-40.489,-33.176,123.405,809278046
0.438,0.146,-0.971,-40.412,-36.122,123.023,809282057
0.429,0.152,-0.967,-40.000,-38.931,122.214,809286068
0.422,0.165,-0.956,-39.115,-40.275,120.962,809290086
0.419,0.173,-0.958,-37.527,-40.992,118.992,809294097
0.416,0.173,-0.966,-35.832,-40.565,117.252,809298108
0.425,0.176,-0.965,-34.229,-39.771,115.115,809302119
0.439,0.180,-0.955,-32.489,-38.779,113.099,809306130
0.449,0.180,-0.948,-30.626,-37.725,111.023,809310141
0.465,0.182,-0.933,-29.023,-36.733,108.977,809314152
0.470,0.175,-0.939,-27.832,-36.107,107.038,809318163
0.479,0.166,-0.936,-27.008,-35.115,105.405,809322174
0.479,0.165,-0.938,-26.336,-33.847,104.000,809326185
0.473,0.166,-0.937,-25.985,-32.504,102.809,809330196
0.468,0.156,-0.948,-26.214,-30.748,101.756,809334207
0.470,0.153,-0.938,-26.198,-28.794,100.656,809338218
0.478,0.158,-0.941,-25.893,-27.359,99.191,809342229
0.485,0.156,-0.931,-25.802,-25.588,97.817,809346240
0.500,0.163,-0.932,-24.840,-24.260,96.198,809350250
0.512,0.169,-0.943,-24.015,-23.282,95.359,809354261
0.542,0.165,-0.941,-23.176,-23.145,95.115,809358272
0.571,0.170,-0.931,-21.985,-23.099,94.412,809362283
0.600,0.162,-0.935,-21.298,-24.061,93.282,809366294
0.608,0.170,-0.931,-19.893,-25.237,91.740,809370304
0.621,0.181,-0.943,-17.740,-26.458,90.000,809374316
0.621,0.190,-0.954,-16.565,-28.519,88.183,809378326
0.623,0.198,-0.961,-15.221,-30.794,86.962,809382337
0.626,0.195,-0.968,-14.137,-33.710,85.695,809386348
0.638,0.187,-0.975,-13.466,-36.061,84.137,809390368
0.631,0.191,-0.976,-13.328,-37.634,82.046,809394379
0.617,0.189,-0.987,-12.962,-38.412,79.344,809398390
0.592,0.172,-0.996,-13.069,-38.321,76.855,809402401
0.573,0.180,-0.995,-13.267,-37.802,74.718,809406412
0.542,0.187,-1.001,-13.756,-36.214,72.733,809410433
0.525,0.189,-0.996,-14.397,-34.321,71.282,809414444
0.512,0.193,-1.005,-15.038,-31.664,69.435,809418455
0.506,0.196,-1.010,-15.420,-27.908,68.351,809422467
0.502,0.195,-1.010,-15.603,-24.015,66.962,809426478
0.499,0.202,-1.006,-15.328,-19.740,65.740,809430491
0.502,0.197,-0.994,-14.840,-16.489,65.115,809434502
0.497,0.217,-1.001,-14.305,-13.725,64.489,809438513
0.485,0.215,-1.000,-13.771,-11.298,63.786,809442525
0.476,0.218,-1.007,-13.359,-8.397,62.733,809446536
0.490,0.218,-1.005,-13.008,-6.321,61.710,809450548
0.490,0.229,-1.009,-12.107,-4.992,60.656,809454559
0.493,0.233,-1.011,-11.405,-4.107,59.863,809458570
0.502,0.227,-1.008,-10.305,-2.962,59.023,809462582
0.505,0.231,-1.023,-9.649,-2.458,57.924,809466593
0.513,0.225,-1.033,-9.008,-2.366,57.359,809470614
0.523,0.219,-1.023,-8.580,-2.931,56.443,809474625
0.522,0.213,-1.025,-8.076,-3.069,55.206,809478636
0.519,0.205,-1.020,-8.076,-2.641,53.664,809482648
0.519,0.200,-1.025,-8.336,-2.244,52.076,809486664
0.510,0.200,-1.040,-9.053,-1.847,50.656,809490675
0.495,0.200,-1.050,-9.557,-1.328,49.069,809494687
0.492,0.200,-1.047,-10.443,-0.855,47.069,809498698
0.488,0.196,-1.041,-10.962,0.244,45.298,809502710
0.479,0.199,-1.050,-11.557,1.298,43.588,809506720
0.481,0.198,-1.050,-12.275,2.733,41.924,809510731
0.483,0.198,-1.044,-13.038,3.481,39.878,809514743
0.486,0.192,-1.044,-13.908,4.779,37.893,809518754
0.484,0.190,-1.056,-14.656,6.015,36.061,809522765
0.486,0.199,-1.047,-15.252,7.802,34.198,809526776
0.472,0.204,-1.045,-15.282,9.069,32.595,809530787
0.461,0.206,-1.043,-15.405,10.183,30.870,809534798
0.466,0.216,-1.042,-15.481,11.282,29.496,809538809
0.451,0.212,-1.035,-15.298,12.733,28.076,809542820
0.452,0.230,-1.035,-15.252,13.939,26.977,809546832
0.452,0.228,-1.031,-14.901,14.794,25.466,809550843
0.454,0.236,-1.029,-14.412,15.557,23.893,809554854
0.444,0.236,-1.030,-13.908,16.031,22.824,809558865
0.446,0.245,-1.031,-13.344,16.137,21.557,809562876
0.444,0.253,-1.025,-12.458,16.076,20.458,809566887
0.440,0.253,-1.027,-12.122,15.389,19.084,809570898
0.433,0.249,-1.038,-12.076,14.382,17.924,809574905
0.424,0.249,-1.024,-12.076,13.374,16.641,809578916
0.414,0.253,-1.023,-11.786,12.153,15.191,809582927
0.399,0.256,-1.021,-11.634,11.359,14.137,809586938
0.397,0.263,-1.028,-11.328,10.168,13.099,809590949
0.393,0.262,-1.026,-11.130,9.374,12.397,809594961
0.380,0.260,-1.026,-11.145,8.427,11.511,809598972
0.372,0.262,-1.027,-11.160,7.557,10.962,809602984
0.375,0.252,-1.025,-11.313,6.580,10.000,809606995
0.364,0.246,-1.021,-11.115,6.137,9.313,809611006
0.348,0.245,-1.025,-10.672,5.908,8.366,809615018
0.336,0.254,-1.024,-10.366,5.573,8.000,809619029
0.329,0.258,-1.030,-9.511,5.847,7.237,809623041
0.323,0.265,-1.037,-9.359,5.374,6.947,809627051
0.318,0.254,-1.035,-8.977,5.542,6.275,809631062
0.327,0.256,-1.038,-8.779,5.374,5.267,809635073
0.316,0.247,-1.044,-8.473,5.466,4.382,809639084
0.312,0.251,-1.032,-8.244,5.878,3.786,809643095
0.306,0.252,-1.039,-8.107,6.076,2.901,809647106
0.299,0.250,-1.036,-7.954,6.076,2.458,809651117
0.293,0.246,-1.037,-7.954,6.504,2.000,809655127
0.292,0.248,-1.037,-7.603,6.565,1.481,809659138
0.297,0.253,-1.035,-7.145,6.641,0.733,809663149
0.302,0.260,-1.026,-6.901,6.977,0.458,809667160
0.303,0.263,-1.025,-6.244,6.931,-0.137,809671171
0.297,0.263,-1.025,-5.863,6.901,-0.718,809675182
0.298,0.269,-1.023,-5.450,6.397,-1.282,809679193
0.294,0.262,-1.018,-4.794,6.122,-1.969,809683203
0.298,0.270,-1.023,-4.229,5.588,-2.458,809687214
0.294,0.265,-1.027,-3.496,4.855,-3.237,809691226
0.286,0.266,-1.028,-2.931,3.878,-3.954,809695237
0.283,0.268,-1.036,-2.443,3.008,-4.504,809699248
0.281,0.270,-1.037,-2.229,1.802,-5.008,809703259
0.277,0.258,-1.051,-1.832,0.229,-5.466,809707270
0.273,0.256,-1.055,-2.015,-1.069,-5.954,809711281
0.269,0.248,-1.054,-2.046,-2.229,-6.214,809715293
0.257,0.240,-1.065,-2.183,-2.931,-6.214,809719304
0.246,0.246,-1.063,-2.351,-3.985,-6.000,809723315
0.236,0.235,-1.069,-2.931,-4.275,-5.573,809727326
0.230,0.241,-1.072,-3.450,-4.519,-5.252,809731337
0.224,0.229,-1.077,-3.557,-4.137,-5.359,809735349
0.220,0.239,-1.077,-4.000,-3.725,-5.099,809739360
0.214,0.243,-1.073,-3.863,-2.977,-5.221,809743371
0.207,0.249,-1.083,-3.939,-2.336,-4.977,809747382
0.203,0.252,-1.091,-3.771,-1.115,-4.916,809751393
0.206,0.252,-1.088,-3.450,0.107,-4.580,809755405
0.194,0.253,-1.085,-3.313,0.824,-4.809,809759426
0.210,0.245,-1.092,-2.901,1.450,-5.130,809763437
0.201,0.241,-1.084,-2.550,2.260,-5.282,809767448
0.208,0.243,-1.083,-2.382,2.733,-5.679,809771459
0.213,0.246,-1.103,-2.336,3.038,-5.542,809775470
0.204,0.240,-1.108,-2.427,2.931,-5.924,809779483
0.207,0.242,-1.102,-2.611,3.221,-5.893,809783494
0.213,0.240,-1.111,-2.672,3.252,-6.137,809787505
0.208,0.235,-1.107,-3.176,3.069,-6.153,809791516
0.204,0.227,-1.099,-3.405,3.160,-6.046,809795528
0.202,0.226,-1.100,-3.863,3.267,-5.817,809799539
0.201,0.227,-1.109,-4.305,4.000,-5.924,809803551
0.195,0.229,-1.092,-4.733,4.458,-5.817,809807562
0.191,0.235,-1.092,-5.069,4.626,-5.695,809811573
0.188,0.226,-1.094,-5.344,4.733,-5.511,809815584
0.193,0.228,-1.093,-5.557,5.115,-5.618,809819594
0.194,0.224,-1.097,-5.557,5.420,-5.588,809823605
0.200,0.229,-1.086,-5.939,5.939,-5.695,809827616
0.190,0.229,-1.089,-5.878,6.137,-5.634,809831627
0.195,0.234,-1.083,-6.107,6.427,-5.863,809835639
0.191,0.236,-1.086,-6.214,6.427,-5.664,809839649
0.197,0.235,-1.079,-6.198,6.366,-5.664,809843660
0.211,0.230,-1.080,-6.275,6.168,-5.634,809847671
0.209,0.226,-1.090,-6.336,5.969,-5.557,809851682
0.215,0.222,-1.076,-6.275,5.466,-5.221,809855693
0.211,0.226,-1.072,-6.397,5.206,-5.206,809859714
0.220,0.225,-1.078,-6.321,4.702,-5.130,809863725
0.222,0.227,-1.077,-5.969,4.550,-5.267,809867736
0.213,0.236,-1.070,-5.527,4.000,-5.344,809871747
0.210,0.244,-1.066,-5.053,3.679,-5.405,809875758
0.210,0.236,-1.074,-4.565,3.267,-5.450,809879779
0.212,0.240,-1.067,-4.214,3.008,-5.634,809883791
0.207,0.242,-1.061,-3.786,2.458,-5.893,809887802
0.211,0.237,-1.060,-3.573,1.725,-6.015,809891814
0.206,0.237,-1.070,-3.099,1.664,-6.061,809895825
0.206,0.237,-1.063,-2.885,1.145,-5.878,809899836
0.204,0.239,-1.061,-2.840,0.580,-5.847,809903848
0.208,0.236,-1.067,-3.145,0.046,-5.710,809907859
0.206,0.229,-1.065,-3.435,-0.519,-5.939,809911871
0.197,0.237,-1.062,-3.679,-0.489,-5.863,809915882
0.190,0.238,-1.073,-3.847,-0.473,-6.122,809919892
0.189,0.233,-1.064,-3.893,-0.580,-6.183,809923903
0.185,0.233,-1.065,-4.198,-0.076,-5.985,809927914
0.176,0.236,-1.073,-4.336,0.412,-6.107,809931925
0.175,0.238,-1.059,-4.244,1.023,-6.107,809935936
0.187,0.238,-1.065,-4.092,1.634,-6.168,809939957
0.183,0.235,-1.076,-3.679,1.817,-6.305,809943968
0.186,0.238,-1.065,-3.389,2.260,-6.137,809947980
0.196,0.236,-1.074,-3.130,2.382,-5.985,809951991
0.195,0.228,-1.070,-3.008,2.763,-5.878,809956002
0.205,0.236,-1.064,-2.947,2.565,-5.817,809960022
0.203,0.231,-1.071,-2.824,2.153,-5.511,809964033
0.206,0.228,-1.079,-2.870,1.695,-5.450,809968044
0.208,0.229,-1.070,-2.977,1.069,-5.405,809972055
0.209,0.228,-1.073,-2.763,1.008,-5.618,809976066
0.203,0.230,-1.097,-2.626,0.443,-5.618,809980084
0.203,0.228,-1.087,-2.473,-0.382,-5.893,809984094
0.202,0.228,-1.088,-2.382,-1.115,-6.046,809988105
0.204,0.225,-1.091,-2.641,-1.771,-6.183,809992116
0.203,0.226,-1.099,-3.084,-2.061,-6.366,809996127
0.194,0.220,-1.114,-3.679,-2.504,-6.336,810000138
0.192,0.213,-1.115,-4.214,-2.947,-6.122,810004150
0.188,0.214,-1.108,-5.191,-3.481,-6.153,810008161
0.177,0.209,-1.113,-6.275,-3.893,-6.458,810012172
0.170,0.210,-1.108,-7.298,-3.542,-6.183,810016184
0.167,0.210,-1.108,-8.137,-2.885,-6.244,810020195
0.158,0.209,-1.106,-8.931,-2.321,-6.214,810024206
0.153,0.227,-1.117,-9.649,-1.603,-5.985,810028217
0.151,0.221,-1.112,-10.290,-1.038,-6.031,810032228
0.145,0.225,-1.107,-10.947,-0.336,-5.939,810036239
0.142,0.228,-1.110,-11.618,0.595,-5.466,810040249
0.143,0.230,-1.120,-12.366,1.313,-5.191,810044260
0.129,0.237,-1.115,-12.870,2.519,-4.672,810048271
0.125,0.243,-1.106,-13.435,3.496,-3.878,810052282
0.131,0.246,-1.096,-13.450,4.687,-3.023,810056293
0.121,0.249,-1.089,-13.573,5.908,-2.382,810060304
0.121,0.253,-1.093,-13.420,7.099,-1.252,810064316
0.131,0.249,-1.090,-13.191,8.427,-0.519,810068327
0.133,0.252,-1.086,-12.809,9.557,0.214,810072339
0.144,0.254,-1.071,-12.489,10.397,1.038,810076350
0.149,0.251,-1.078,-12.183,11.313,1.466,810080369
0.162,0.254,-1.065,-12.015,11.664,2.031,810084380
0.167,0.260,-1.055,-11.359,11.649,2.458,810088391
0.175,0.263,-1.062,-10.565,11.588,2.733,810092402
0.185,0.259,-1.068,-9.863,11.053,2.702,810096414
0.194,0.263,-1.063,-9.206,10.366,2.626,810100435
0.201,0.256,-1.055,-9.008,8.947,2.260,810104446
0.206,0.253,-1.062,-8.809,7.252,1.908,810108458
0.214,0.250,-1.065,-9.069,5.573,1.756,810112468
0.216,0.246,-1.061,-9.115,4.122,1.771,810116479
0.215,0.248,-1.069,-8.901,2.763,1.511,810120492
0.212,0.249,-1.070,-8.824,1.679,1.771,810124503
0.203,0.256,-1.070,-8.901,1.038,1.908,810128514
0.201,0.251,-1.064,-9.053,0.534,2.122,810132525
0.199,0.246,-1.071,-8.947,0.168,2.198,810136537
0.203,0.254,-1.063,-8.656,0.412,2.275,810140549
0.186,0.258,-1.060,-8.046,0.779,2.153,810144559
0.180,0.260,-1.061,-7.282,1.603,2.473,810148570
