acc_x,acc_y,acc_z,gyro_x,gyro_y,gyro_z,time
0.365,-0.019,-1.093,-2.412,1.298,-1.237,0
0.363,-0.019,-1.091,-2.489,1.710,-1.176,4053
0.365,-0.026,-1.078,-2.260,2.168,-1.359,8067
0.368,-0.026,-1.074,-2.366,2.214,-1.206,12078
0.368,-0.029,-1.083,-2.305,2.351,-1.206,16090
0.368,-0.024,-1.088,-2.382,2.412,-1.176,20101
0.368,-0.019,-1.090,-2.229,2.305,-1.145,24112
0.375,-0.013,-1.096,-2.198,2.366,-1.130,28124
0.381,-0.021,-1.086,-2.229,2.366,-1.298,32134
0.378,-0.016,-1.085,-2.168,2.107,-1.313,36145
0.387,-0.017,-1.098,-2.153,1.420,-1.542,40157
0.389,-0.020,-1.084,-2.122,1.298,-1.664,44168
0.387,-0.020,-1.092,-2.092,0.565,-1.634,48178
0.382,-0.025,-1.099,-2.061,-0.840,-1.802,52189
0.365,-0.019,-1.093,-1.908,-2.183,-1.832,56200
0.367,-0.019,-1.089,-1.756,-2.321,-2.076,60211
0.367,-0.012,-1.094,-1.374,-2.794,-2.153,64222
0.365,-0.015,-1.095,-1.115,-3.939,-2.458,68233
0.361,-0.014,-1.084,-0.779,-4.321,-2.534,72244
0.359,-0.010,-1.086,-0.397,-3.389,-2.504,76255
0.362,-0.015,-1.088,-0.107,-2.122,-2.336,80267
0.357,-0.011,-1.091,0.336,-1.481,-1.985,84278
0.357,-0.016,-1.094,0.519,-0.931,-2.107,88289
0.351,-0.014,-1.089,0.977,-0.489,-2.092,92300
0.346,-0.015,-1.088,1.023,-0.183,-2.046,96311
0.353,-0.017,-1.093,1.389,0.412,-1.847,100322
0.356,-0.016,-1.095,1.634,1.038,-1.725,104333
0.359,-0.023,-1.096,1.817,1.435,-2.015,108344
0.355,-0.023,-1.104,1.679,1.802,-1.664,112356
0.347,-0.026,-1.096,1.771,2.122,-1.206,116367
0.361,-0.028,-1.108,1.603,2.412,-1.344,120378
0.364,-0.026,-1.103,1.359,2.656,-1.160,124390
0.367,-0.023,-1.104,1.344,2.748,-1.282,128400
0.364,-0.027,-1.108,1.008,2.626,-0.718,132411
0.371,-0.027,-1.105,1.099,2.931,-0.794,136422
0.383,-0.030,-1.104,1.130,2.901,-0.458,140434
0.379,-0.028,-1.108,1.115,2.168,-0.504,144445
0.383,-0.033,-1.121,0.931,1.832,-0.519,148455
0.376,-0.027,-1.110,1.069,0.809,-0.580,152466
0.378,-0.034,-1.116,0.809,0.229,-0.427,156477
0.381,-0.033,-1.113,0.672,-1.695,-0.412,160488
0.387,-0.032,-1.118,0.733,-2.244,-0.840,164499
0.376,-0.036,-1.122,0.504,-3.313,-0.931,168510
0.374,-0.039,-1.110,0.153,-3.634,-1.221,172521
0.370,-0.039,-1.120,0.290,-3.878,-1.405,176532
0.366,-0.037,-1.115,-0.061,-5.344,-1.603,180543
0.368,-0.037,-1.115,-0.137,-4.977,-1.832,184554
0.364,-0.035,-1.110,0.000,-3.847,-1.969,188564
0.354,-0.036,-1.103,-0.168,-3.206,-2.031,192576
0.354,-0.037,-1.117,-0.321,-2.168,-2.031,196587
0.351,-0.037,-1.110,-0.443,-1.893,-2.290,200598
0.350,-0.034,-1.105,-0.733,-1.130,-2.443,204610
0.347,-0.032,-1.107,-1.084,0.015,-2.550,208621
0.340,-0.028,-1.096,-1.221,1.115,-2.519,212641
0.343,-0.037,-1.097,-1.282,2.061,-2.351,216652
0.342,-0.031,-1.096,-1.267,3.328,-2.031,220663
0.341,-0.023,-1.097,-1.359,5.618,-1.710,224674
0.341,-0.023,-1.107,-1.405,7.420,-1.527,228685
0.349,-0.026,-1.100,-1.435,8.412,-1.115,232703
0.360,-0.023,-1.098,-1.618,8.702,-0.962,236714
0.375,-0.030,-1.095,-1.817,11.206,-0.260,240725
0.385,-0.027,-1.093,-1.908,13.206,0.260,244736
0.389,-0.017,-1.099,-1.985,12.870,0.382,248747
0.392,-0.024,-1.096,-2.198,11.267,0.458,252758
0.397,-0.025,-1.095,-2.336,8.534,0.061,256769
0.397,-0.023,-1.097,-2.550,5.908,-0.336,260780
0.392,-0.026,-1.104,-2.672,2.046,-0.809,264791
0.387,-0.028,-1.102,-2.733,-2.626,-1.191,268797
0.387,-0.024,-1.102,-3.130,-3.786,-1.435,272809
0.383,-0.026,-1.105,-3.328,-8.626,-2.153,276819
0.379,-0.027,-1.091,-3.832,-10.397,-2.229,280831
0.378,-0.027,-1.100,-4.031,-11.618,-2.473,284842
0.371,-0.019,-1.093,-4.153,-10.931,-2.443,288854
0.376,-0.030,-1.093,-4.137,-8.870,-2.351,292864
0.368,-0.028,-1.097,-4.427,-8.733,-2.260,296875
0.355,-0.018,-1.096,-4.366,-7.374,-2.336,300886
0.350,-0.027,-1.087,-4.336,-5.038,-2.137,304897
0.343,-0.022,-1.092,-4.290,-3.023,-2.000,308909
0.340,-0.017,-1.097,-3.878,-1.221,-1.802,312924
0.349,-0.018,-1.084,-3.695,0.214,-1.420,316935
0.352,-0.020,-1.087,-3.481,1.542,-1.496,320947
0.360,-0.022,-1.093,-3.298,2.779,-1.557,324958
0.364,-0.021,-1.089,-3.420,4.122,-1.405,328969
0.367,-0.025,-1.084,-3.344,5.099,-1.328,332990
0.367,-0.015,-1.099,-3.267,5.267,-1.008,337001
0.372,-0.012,-1.092,-3.038,5.069,-1.069,341012
0.378,-0.022,-1.095,-2.870,4.412,-0.962,345023
0.377,-0.016,-1.088,-2.656,3.496,-0.962,349034
0.387,-0.016,-1.103,-2.351,2.595,-1.099,353055
0.385,-0.015,-1.102,-2.382,1.405,-1.298,357066
0.373,-0.016,-1.091,-2.473,-0.137,-1.191,361077
0.378,-0.019,-1.099,-2.641,-1.634,-1.328,365089
0.365,-0.016,-1.100,-2.687,-2.443,-1.237,369100
0.368,-0.018,-1.099,-2.748,-2.992,-1.221,373110
0.373,-0.016,-1.092,-2.748,-4.443,-1.206,377121
0.368,-0.018,-1.090,-3.130,-4.977,-1.542,381132
0.364,-0.029,-1.101,-3.344,-5.069,-1.771,385143
0.368,-0.025,-1.090,-3.527,-4.443,-1.511,389154
0.362,-0.021,-1.099,-3.695,-3.527,-1.573,393164
0.353,-0.026,-1.105,-4.107,-3.664,-1.542,397175
0.357,-0.023,-1.100,-4.321,-3.527,-1.420,401186
0.348,-0.024,-1.099,-4.489,-2.733,-1.267,405198
0.360,-0.030,-1.105,-4.489,-1.969,-1.557,409209
0.355,-0.022,-1.094,-4.412,-1.023,-1.435,413230
0.365,-0.018,-1.109,-4.336,-0.214,-1.328,417241
0.356,-0.020,-1.100,-4.153,0.458,-1.282,421253
0.362,-0.018,-1.098,-4.061,0.718,-1.328,425264
0.359,-0.014,-1.097,-3.756,0.977,-1.221,429275
0.365,-0.010,-1.106,-3.542,1.282,-1.237,433296
0.365,-0.022,-1.103,-3.206,1.328,-1.374,437307
0.364,-0.022,-1.093,-2.931,1.420,-1.206,441318
0.368,-0.013,-1.094,-2.733,1.145,-1.267,445329
0.365,-0.019,-1.098,-2.443,1.038,-1.267,449340
0.369,-0.017,-1.104,-2.626,0.733,-1.374,453352
0.375,-0.015,-1.094,-2.595,0.275,-1.344,457363
0.370,-0.021,-1.100,-2.916,-0.290,-1.405,461374
0.367,-0.018,-1.090,-3.038,-0.901,-1.557,465385
0.371,-0.021,-1.095,-3.252,-1.221,-1.649,469396
0.366,-0.017,-1.094,-3.252,-1.802,-1.405,473408
0.362,-0.019,-1.089,-3.298,-2.427,-1.130,477418
0.357,-0.015,-1.083,-3.099,-2.366,-1.313,481429
0.358,-0.014,-1.093,-3.130,-2.687,-1.206,485441
0.349,-0.018,-1.095,-2.977,-2.870,-0.977,489452
0.349,-0.012,-1.100,-2.733,-2.611,-1.008,493463
0.341,-0.022,-1.103,-2.931,-3.099,-0.672,497474
0.343,-0.019,-1.097,-2.840,-2.382,-0.489,501486
0.352,-0.025,-1.100,-2.931,-1.573,-0.321,505497
0.357,-0.023,-1.101,-2.901,-0.840,-0.107,509508
0.352,-0.026,-1.111,-2.992,-0.824,-0.046,513519
0.363,-0.021,-1.112,-3.130,-0.397,0.015,517529
0.362,-0.025,-1.107,-3.237,-0.031,-0.061,521540
0.355,-0.021,-1.111,-3.176,0.321,0.061,525551
0.360,-0.024,-1.107,-3.267,-0.076,0.366,529562
0.365,-0.020,-1.109,-3.145,-0.504,0.366,533582
0.365,-0.030,-1.123,-3.115,-0.840,0.198,537593
0.362,-0.022,-1.119,-3.176,-0.824,0.061,541605
0.358,-0.020,-1.123,-3.221,-0.840,-0.031,545616
0.362,-0.028,-1.119,-3.313,-0.962,0.198,549627
0.351,-0.031,-1.127,-3.099,-0.534,-0.015,553648
0.354,-0.025,-1.116,-2.992,-0.061,-0.015,557660
0.342,-0.029,-1.123,-3.145,0.397,-0.046,561670
0.344,-0.034,-1.128,-2.931,0.840,0.000,565681
0.338,-0.027,-1.133,-3.008,1.817,-0.214,569692
0.337,-0.029,-1.143,-3.145,2.687,-0.229,573712
0.330,-0.033,-1.137,-3.237,3.313,-0.122,577723
0.336,-0.039,-1.152,-3.618,3.802,-0.137,581735
0.328,-0.036,-1.143,-3.756,3.969,-0.046,585745
0.325,-0.043,-1.153,-4.153,4.107,-0.015,589756
0.329,-0.044,-1.168,-4.687,4.382,-0.183,593768
0.319,-0.048,-1.156,-5.237,4.305,-0.137,597779
0.314,-0.052,-1.171,-5.664,3.649,-0.275,601790
0.308,-0.041,-1.177,-6.336,3.221,-0.580,605801
0.295,-0.048,-1.187,-6.641,3.053,-0.779,609813
0.289,-0.038,-1.188,-6.977,2.824,-1.115,613827
0.283,-0.034,-1.208,-7.924,2.656,-1.221,617839
0.264,-0.024,-1.212,-8.550,2.061,-1.359,621849
0.262,-0.025,-1.219,-8.870,1.725,-1.542,625860
0.254,-0.024,-1.222,-9.359,1.802,-1.802,629872
0.240,-0.017,-1.239,-9.847,2.046,-1.878,633891
0.230,-0.011,-1.247,-10.366,1.221,-1.878,637902
0.215,-0.020,-1.257,-11.328,-0.321,-1.420,641913
0.205,-0.021,-1.263,-12.275,-1.038,-0.794,645924
0.197,-0.016,-1.270,-13.069,-1.359,-0.214,649935
0.191,-0.017,-1.268,-13.695,-1.542,0.779,653946
0.178,-0.018,-1.279,-14.412,-2.794,1.740,657957
0.175,-0.032,-1.284,-15.527,-3.130,3.191,661968
0.170,-0.035,-1.278,-16.260,-2.611,4.656,665979
0.167,-0.051,-1.290,-17.130,-2.260,6.305,669990
0.166,-0.051,-1.282,-17.695,-2.824,7.557,674001
0.166,-0.053,-1.286,-17.771,-2.901,8.504,678013
0.156,-0.048,-1.284,-18.183,-2.595,9.832,682024
0.152,-0.055,-1.274,-18.183,-2.458,10.733,686034
0.159,-0.062,-1.278,-18.000,-2.229,11.725,690045
0.152,-0.057,-1.284,-17.588,-2.382,12.550,694057
0.152,-0.055,-1.278,-16.962,-2.153,13.023,698069
0.142,-0.057,-1.288,-16.443,-2.290,13.740,702081
0.144,-0.053,-1.278,-15.573,-2.809,14.366,706092
0.145,-0.047,-1.281,-14.489,-3.435,14.168,710104
0.143,-0.053,-1.269,-13.496,-2.672,14.290,714115
0.130,-0.065,-1.277,-12.702,-2.519,13.832,718126
0.128,-0.071,-1.275,-11.954,-2.855,13.802,722137
0.129,-0.082,-1.271,-11.527,-1.725,13.374,726148
0.118,-0.092,-1.283,-11.374,-0.962,12.641,730159
0.111,-0.102,-1.265,-11.282,0.198,12.153,734170
0.121,-0.120,-1.274,-12.076,1.649,11.481,738182
0.126,-0.143,-1.275,-13.206,3.893,11.267,742193
0.136,-0.150,-1.272,-14.733,7.008,10.550,746205
0.142,-0.156,-1.272,-16.366,8.870,10.076,750216
0.158,-0.156,-1.269,-17.740,9.557,9.267,754227
0.162,-0.166,-1.258,-19.084,10.214,8.534,758239
0.171,-0.164,-1.249,-20.153,12.519,7.924,762251
0.181,-0.166,-1.258,-20.840,13.099,7.023,766261
0.184,-0.156,-1.244,-21.267,11.176,6.183,770272
0.188,-0.153,-1.247,-21.618,9.282,5.160,774283
0.201,-0.151,-1.250,-21.344,7.710,4.275,778295
0.206,-0.148,-1.241,-20.840,5.634,3.130,782306
0.202,-0.144,-1.227,-20.076,2.351,2.015,786317
0.202,-0.141,-1.225,-18.885,-2.382,0.611,790328
0.198,-0.134,-1.221,-17.893,-4.382,-0.244,794339
0.185,-0.135,-1.224,-16.641,-6.305,-1.435,798353
0.167,-0.126,-1.222,-15.649,-10.962,-2.947,802364
0.164,-0.132,-1.218,-14.565,-13.908,-4.198,806375
0.142,-0.129,-1.208,-13.359,-15.206,-5.924,810386
0.128,-0.122,-1.205,-12.015,-15.115,-7.740,814397
0.113,-0.123,-1.205,-10.733,-13.924,-9.160,818408
0.094,-0.121,-1.200,-9.847,-13.282,-9.985,822419
0.092,-0.121,-1.183,-8.626,-9.649,-10.427,826431
0.085,-0.124,-1.179,-7.389,-3.969,-10.672,830442
0.077,-0.125,-1.169,-6.779,2.779,-12.611,834453
0.078,-0.147,-1.167,-6.229,10.855,-14.000,838464
0.085,-0.147,-1.166,-6.183,19.954,-14.534,842475
0.104,-0.150,-1.159,-6.427,28.412,-14.061,846486
0.121,-0.152,-1.165,-6.718,35.573,-14.031,850497
0.145,-0.161,-1.147,-7.176,45.924,-13.237,854508
0.167,-0.163,-1.157,-7.756,50.855,-13.160,858520
0.181,-0.178,-1.147,-9.053,54.351,-13.420,862531
0.210,-0.179,-1.159,-10.504,53.420,-13.695,866542
0.233,-0.179,-1.160,-12.015,51.557,-13.099,870553
0.257,-0.177,-1.158,-13.573,49.908,-10.702,874564
0.267,-0.155,-1.165,-14.672,43.389,-8.550,878575
0.273,-0.148,-1.175,-15.160,36.000,-8.672,882587
0.281,-0.132,-1.164,-15.527,30.061,-8.656,886597
0.287,-0.113,-1.170,-15.603,24.733,-8.763,890608
0.299,-0.100,-1.157,-15.374,21.679,-8.840,894619
0.302,-0.079,-1.158,-14.626,16.336,-8.855,898631
0.319,-0.066,-1.131,-14.168,13.420,-8.595,902651
0.328,-0.055,-1.118,-13.435,12.916,-7.588,906662
0.340,-0.041,-1.107,-11.939,9.588,-6.885,910674
0.355,-0.025,-1.088,-10.443,8.702,-5.405,914685
0.354,-0.002,-1.082,-8.321,7.908,-3.939,918696
0.360,0.009,-1.077,-6.076,3.756,-2.473,922707
0.351,0.022,-1.073,-4.366,1.023,-0.977,926718
0.355,0.032,-1.078,-2.122,-4.672,0.321,930729
0.338,0.045,-1.070,0.107,-7.832,1.924,934740
0.315,0.044,-1.077,2.290,-11.298,3.740,938747
0.298,0.055,-1.066,4.519,-18.366,4.656,942758
0.290,0.050,-1.052,5.786,-22.534,6.458,946769
0.280,0.044,-1.051,6.397,-26.153,8.107,950780
0.278,0.033,-1.043,6.885,-25.450,11.359,954791
0.281,0.030,-1.042,6.733,-22.244,15.450,958798
0.283,0.037,-1.035,6.305,-20.763,19.664,962809
0.294,0.027,-1.023,5.359,-18.015,24.046,966821
0.293,0.018,-1.030,3.802,-13.618,27.695,970832
0.284,0.007,-1.043,2.397,-11.802,30.626,974843
0.287,-0.004,-1.036,1.191,-10.092,33.328,978855
0.283,-0.005,-1.049,-0.260,-9.374,36.137,982865
0.292,0.006,-1.037,-1.511,-4.870,38.412,986876
0.308,0.008,-1.049,-2.931,-1.954,40.366,990887
0.319,0.011,-1.040,-3.939,-0.015,41.084,994898
0.329,0.024,-1.031,-4.336,3.939,41.969,998910
0.332,0.052,-1.041,-4.122,8.550,41.634,1002920
0.342,0.057,-1.032,-3.176,11.817,42.046,1006931
0.374,0.063,-1.040,-2.534,17.634,42.626,1010942
0.397,0.065,-1.039,-2.137,22.840,42.565,1014953
0.430,0.073,-1.043,-1.954,27.160,42.931,1018964
0.444,0.067,-1.028,-1.466,29.863,43.359,1022984
0.467,0.060,-1.027,-1.069,31.954,43.481,1026995
0.485,0.059,-1.036,-0.672,32.595,44.534,1031006
0.493,0.053,-1.033,-0.901,30.351,45.695,1035017
0.505,0.040,-1.035,-1.817,26.565,46.687,1039028
0.527,0.024,-1.037,-2.885,19.450,46.427,1043049
0.536,0.004,-1.039,-4.672,12.183,46.824,1047060
0.531,-0.005,-1.019,-7.359,5.557,47.817,1051071
0.530,-0.011,-1.001,-10.427,1.878,48.718,1055083
0.525,-0.029,-1.025,-13.603,-5.908,48.611,1059094
0.527,-0.038,-1.014,-16.916,-9.023,48.382,1063105
0.515,-0.032,-1.006,-20.183,-12.275,47.695,1067117
0.501,-0.034,-0.990,-23.359,-13.115,47.176,1071128
0.503,-0.026,-0.984,-26.489,-10.977,46.656,1075140
0.486,-0.012,-0.992,-28.840,-9.969,45.405,1079151
0.491,-0.002,-0.983,-30.076,-7.939,44.290,1083161
0.501,0.001,-0.990,-31.237,-4.183,43.771,1087172
0.514,0.011,-1.003,-31.588,-1.023,43.466,1091183
0.552,0.020,-0.986,-31.115,5.267,44.229,1095194
0.597,0.029,-0.977,-29.939,11.130,45.359,1099205
0.648,0.040,-0.979,-28.168,13.359,47.023,1103225
0.684,0.042,-0.975,-27.466,16.168,48.870,1107236
0.706,0.033,-0.986,-26.290,11.145,50.305,1111247
0.716,0.030,-0.994,-25.649,3.191,51.160,1115258
0.708,0.020,-0.996,-25.527,-6.137,51.725,1119269
0.689,0.017,-1.011,-25.588,-20.534,50.809,1123290
0.678,0.005,-1.003,-25.145,-29.908,49.679,1127301
0.635,0.009,-1.006,-24.504,-44.290,46.504,1131312
0.618,0.009,-0.988,-24.046,-55.863,43.221,1135323
0.615,0.008,-0.975,-24.198,-57.817,40.519,1139334
0.605,-0.005,-0.977,-24.611,-60.718,37.313,1143346
0.596,-0.004,-0.959,-25.847,-52.992,35.908,1147357
0.571,-0.005,-0.968,-27.023,-47.221,34.046,1151368
0.552,0.009,-0.968,-27.969,-40.870,31.954,1155379
0.526,0.010,-0.962,-28.870,-30.931,30.595,1159390
0.523,0.018,-0.966,-29.282,-22.885,28.947,1163402
0.521,0.025,-0.971,-29.252,-17.511,27.496,1167412
0.528,0.036,-0.964,-29.038,-8.519,27.267,1171423
0.542,0.051,-0.973,-28.458,-4.672,27.130,1175434
0.553,0.054,-0.967,-27.221,-2.443,27.420,1179445
0.559,0.064,-0.962,-25.893,-1.756,28.366,1183456
0.575,0.061,-0.977,-24.702,-5.008,28.397,1187467
0.571,0.064,-0.982,-23.603,-9.023,28.137,1191478
0.562,0.072,-0.993,-21.985,-15.893,27.786,1195489
0.554,0.076,-0.992,-20.504,-22.611,26.931,1199500
0.551,0.074,-0.990,-18.931,-25.237,26.534,1203510
0.561,0.075,-0.980,-17.206,-31.573,25.786,1207521
0.572,0.075,-0.981,-16.137,-33.267,25.298,1211532
0.578,0.078,-0.984,-14.840,-34.153,24.611,1215543
0.564,0.072,-0.994,-14.168,-33.573,24.641,1219554
0.549,0.076,-0.980,-13.710,-31.069,24.443,1223565
0.530,0.068,-0.989,-13.328,-29.588,24.031,1227576
0.527,0.076,-0.992,-12.718,-27.969,23.053,1231587
0.519,0.067,-0.981,-11.603,-26.137,22.290,1235598
0.510,0.067,-0.998,-10.962,-23.817,21.420,1239609
0.494,0.071,-1.012,-10.748,-22.885,20.809,1243629
0.479,0.073,-1.020,-10.824,-22.550,20.107,1247640
0.478,0.073,-1.010,-11.069,-21.985,19.038,1251652
0.468,0.070,-1.024,-11.374,-20.809,17.924,1255662
0.457,0.066,-1.026,-11.588,-20.992,16.855,1259673
0.451,0.063,-1.030,-11.893,-22.137,15.588,1263694
0.447,0.059,-1.027,-12.748,-21.053,14.504,1267705
0.446,0.058,-1.032,-13.802,-19.634,13.527,1271716
0.434,0.061,-1.021,-14.305,-19.573,12.687,1275727
0.421,0.063,-1.021,-15.282,-18.198,12.519,1279738
0.409,0.075,-1.025,-15.618,-16.366,12.611,1283750
0.415,0.083,-1.021,-15.481,-14.229,12.794,1287760
0.424,0.083,-1.026,-15.298,-12.855,13.038,1291771
0.436,0.091,-1.015,-14.718,-10.916,13.695,1295782
0.442,0.099,-1.014,-14.183,-6.550,14.977,1299793
0.438,0.103,-1.025,-13.450,-6.519,15.939,1303804
0.451,0.101,-1.034,-12.473,-7.603,16.947,1307814
0.450,0.105,-1.040,-11.328,-10.366,17.847,1311825
0.450,0.098,-1.046,-9.618,-13.527,18.427,1315836
0.450,0.111,-1.051,-8.046,-16.748,18.687,1319847
0.442,0.105,-1.047,-6.702,-20.046,18.672,1323867
0.430,0.104,-1.058,-5.603,-24.168,18.397,1327879
0.425,0.090,-1.066,-4.626,-26.855,17.786,1331890
0.429,0.078,-1.060,-4.397,-27.191,17.267,1335901
0.425,0.072,-1.050,-4.092,-26.198,16.611,1339915
0.427,0.060,-1.055,-4.336,-21.298,16.122,1343926
0.432,0.056,-1.048,-4.885,-16.290,15.420,1347937
0.429,0.050,-1.053,-5.725,-10.947,14.794,1351948
0.424,0.051,-1.065,-6.626,-6.000,14.076,1355959
0.421,0.045,-1.062,-7.328,-2.611,12.931,1359970
0.421,0.050,-1.047,-8.229,2.992,12.473,1363981
0.418,0.051,-1.065,-8.809,4.443,11.389,1367993
0.428,0.057,-1.057,-9.557,5.710,10.702,1372004
0.428,0.060,-1.063,-9.802,5.710,9.908,1376016
0.426,0.064,-1.064,-10.015,4.504,9.221,1380027
0.434,0.065,-1.065,-10.137,4.214,9.084,1384038
0.438,0.073,-1.080,-10.290,2.840,8.992,1388050
0.453,0.071,-1.065,-9.969,2.382,9.084,1392061
0.460,0.074,-1.059,-9.679,1.985,8.870,1396073
0.462,0.073,-1.071,-9.481,0.794,8.840,1400084
0.453,0.071,-1.066,-9.420,-1.160,8.168,1404095
0.440,0.071,-1.072,-8.794,-4.595,7.298,1408106
0.437,0.069,-1.071,-8.382,-6.229,6.626,1412117
0.429,0.069,-1.087,-7.817,-7.832,5.527,1416128
0.422,0.066,-1.080,-7.557,-11.191,4.015,1420139
0.414,0.061,-1.077,-7.176,-12.626,2.656,1424150
0.411,0.065,-1.077,-6.733,-13.221,1.878,1428159
0.405,0.061,-1.076,-6.718,-10.702,1.466,1432170
0.411,0.061,-1.080,-6.656,-8.031,1.130,1436181
0.406,0.048,-1.060,-7.038,-5.878,0.916,1440193
0.400,0.048,-1.066,-7.359,-2.687,0.611,1444204
0.398,0.036,-1.070,-7.893,-1.511,0.427,1448217
0.392,0.033,-1.057,-8.076,0.183,-0.092,1452228
0.393,0.046,-1.071,-8.107,1.847,-0.137,1456239
0.379,0.047,-1.083,-7.908,1.405,-0.626,1460250
0.377,0.052,-1.080,-8.015,0.748,-0.931,1464261
0.372,0.052,-1.066,-7.878,1.252,-1.634,1468273
0.366,0.046,-1.081,-7.679,0.244,-2.321,1472285
0.365,0.045,-1.065,-7.435,0.916,-2.519,1476296
0.367,0.045,-1.063,-7.466,2.153,-2.733,1480308
0.371,0.047,-1.073,-7.527,2.855,-2.763,1484319
0.361,0.047,-1.068,-7.466,2.519,-2.947,1488330
0.365,0.050,-1.062,-7.618,3.038,-2.916,1492342
0.358,0.052,-1.064,-7.115,2.748,-2.809,1496352
0.347,0.052,-1.067,-6.809,1.481,-2.931,1500363
0.355,0.052,-1.061,-5.985,-0.046,-3.206,1504374
0.341,0.058,-1.063,-5.298,-1.023,-3.511,1508385
0.352,0.047,-1.067,-4.733,-2.031,-3.832,1512397
0.346,0.041,-1.066,-4.427,-2.901,-4.382,1516408
0.341,0.029,-1.063,-4.214,-3.954,-5.115,1520420
0.338,0.022,-1.072,-4.000,-4.748,-5.954,1524431
0.334,0.017,-1.074,-3.924,-5.069,-6.748,1528441
0.331,0.015,-1.073,-4.260,-5.710,-7.710,1532452
0.318,0.002,-1.089,-4.748,-5.863,-8.672,1536463
0.318,0.000,-1.079,-5.145,-6.168,-9.221,1540474
0.305,0.002,-1.086,-5.298,-6.275,-9.832,1544485
0.288,0.004,-1.071,-5.389,-4.947,-9.863,1548496
0.285,0.022,-1.077,-5.115,-2.672,-8.962,1552507
0.281,0.023,-1.091,-4.641,0.031,-7.740,1556518
0.277,0.024,-1.083,-4.397,3.328,-6.718,1560529
0.273,0.031,-1.092,-3.893,9.511,-6.595,1564540
0.289,0.026,-1.084,-3.481,16.550,-6.931,1568548
0.284,0.025,-1.076,-3.115,20.092,-6.000,1572559
0.295,0.021,-1.079,-2.763,26.947,-4.550,1576570
0.293,0.017,-1.082,-2.275,31.252,-3.435,1580581
0.305,0.029,-1.086,-1.740,33.038,-2.595,1584592
0.308,0.029,-1.099,-0.977,33.206,-2.198,1588603
0.324,0.022,-1.104,-0.275,30.397,-1.908,1592614
0.338,0.023,-1.109,0.351,28.611,-2.260,1596625
0.337,0.021,-1.108,1.160,24.992,-2.290,1600637
0.344,0.026,-1.111,1.802,19.267,-2.947,1604648
0.345,0.030,-1.136,2.244,13.405,-3.527,1608659
0.345,0.030,-1.127,2.855,7.008,-4.427,1612680
0.341,0.017,-1.135,3.252,3.038,-5.145,1616691
0.336,0.025,-1.146,3.832,-1.985,-6.137,1620702
0.328,0.023,-1.141,4.122,-8.244,-7.115,1624713
0.323,0.022,-1.139,4.168,-11.023,-7.282,1628725
0.319,0.023,-1.137,4.412,-12.321,-7.237,1632740
0.304,0.018,-1.135,4.061,-10.565,-6.748,1636751
0.290,0.017,-1.144,3.664,-10.809,-6.687,1640762
0.290,0.013,-1.146,3.084,-11.237,-6.809,1644774
0.282,0.008,-1.141,2.137,-8.809,-6.550,1648785
0.272,0.006,-1.132,1.573,-5.099,-5.924,1652796
0.269,0.006,-1.135,0.855,-2.122,-5.557,1656807
0.266,0.020,-1.142,0.229,-0.412,-5.130,1660819
0.262,0.016,-1.144,-0.229,1.389,-4.748,1664830
0.258,0.021,-1.138,-0.321,2.702,-4.214,1668841
0.260,0.022,-1.136,-0.763,4.153,-3.756,1672851
0.260,0.021,-1.143,-0.733,5.237,-3.130,1676862
0.270,0.017,-1.141,-1.069,5.969,-2.916,1680873
0.278,0.019,-1.143,-1.115,7.069,-2.351,1684884
0.291,0.025,-1.137,-1.267,7.649,-1.969,1688896
0.301,0.026,-1.139,-0.931,8.260,-1.298,1692905
0.311,0.027,-1.134,-1.145,9.130,-1.008,1696917
0.308,0.023,-1.142,-0.977,8.321,-0.458,1700928
0.316,0.033,-1.138,-1.130,6.611,-0.107,1704940
0.309,0.026,-1.143,-1.008,3.969,-0.061,1708951
0.310,0.029,-1.153,-0.962,0.992,-0.473,1712972
0.317,0.017,-1.141,-1.053,-0.748,-0.962,1716983
0.309,0.022,-1.145,-0.733,-2.611,-1.099,1720995
0.305,0.026,-1.142,-0.656,-5.298,-1.649,1725006
0.309,0.026,-1.145,-0.840,-4.992,-1.771,1729017
0.312,0.027,-1.149,-1.191,-5.023,-2.137,1733038
0.309,0.012,-1.146,-1.695,-3.634,-2.214,1737049
0.312,0.013,-1.149,-2.198,-3.115,-2.382,1741060
0.309,0.019,-1.152,-2.275,-2.595,-2.748,1745071
0.312,0.024,-1.142,-2.763,-2.550,-2.718,1749082
0.315,0.022,-1.140,-3.145,-2.550,-2.565,1753096
0.313,0.016,-1.141,-3.634,-2.427,-2.412,1757107
0.323,0.027,-1.147,-4.168,-2.885,-2.153,1761118
0.304,0.020,-1.133,-4.534,-3.649,-2.244,1765129
0.294,0.020,-1.131,-4.595,-3.817,-1.832,1769140
0.298,0.029,-1.130,-4.641,-4.931,-1.588,1773150
0.294,0.028,-1.114,-4.718,-5.344,-1.466,1777161
0.298,0.026,-1.130,-4.489,-5.282,-1.359,1781172
0.295,0.031,-1.123,-4.595,-4.321,-0.916,1785183
0.290,0.028,-1.122,-4.626,-3.038,-0.855,1789194
0.291,0.029,-1.116,-4.397,-1.634,-0.351,1793214
0.296,0.033,-1.111,-4.092,0.565,-0.061,1797225
0.305,0.030,-1.107,-3.664,2.779,0.412,1801236
0.315,0.034,-1.099,-3.740,3.954,0.412,1805247
0.317,0.028,-1.111,-3.756,5.908,1.053,1809258
0.323,0.023,-1.117,-3.649,6.595,1.237,1813279
0.319,0.030,-1.114,-3.817,7.115,1.252,1817290
0.326,0.031,-1.106,-3.924,6.107,1.145,1821301
0.326,0.027,-1.118,-3.969,4.244,0.992,1825312
0.335,0.023,-1.115,-4.336,3.298,0.870,1829323
0.335,0.017,-1.115,-4.595,2.137,0.901,1833341
0.331,0.016,-1.114,-5.084,0.824,0.580,1837352
0.337,0.022,-1.111,-5.420,0.229,0.366,1841364
0.340,0.021,-1.112,-5.634,-0.473,0.412,1845374
0.345,0.022,-1.108,-6.183,-1.206,0.473,1849385
0.342,0.024,-1.110,-6.626,-1.878,0.412,1853396
0.333,0.030,-1.108,-6.641,-2.046,0.076,1857408
0.329,0.032,-1.109,-6.611,-1.939,0.137,1861418
0.314,0.033,-1.113,-6.290,-2.687,-0.244,1865429
0.318,0.035,-1.119,-6.076,-3.466,-0.870,1869440
0.309,0.039,-1.110,-5.771,-3.450,-1.252,1873452
0.310,0.034,-1.114,-5.298,-2.611,-1.603,1877463
0.311,0.037,-1.107,-5.115,-1.206,-1.542,1881475
0.314,0.033,-1.115,-5.160,0.595,-1.649,1885485
0.322,0.029,-1.116,-5.038,2.534,-1.374,1889496
0.327,0.023,-1.115,-5.252,3.328,-1.557,1893507
0.334,0.027,-1.116,-5.771,5.725,-1.084,1897518
0.336,0.027,-1.108,-5.985,7.893,-0.611,1901530
0.338,0.032,-1.113,-6.183,7.863,-0.595,1905541
0.337,0.028,-1.121,-6.305,6.687,-0.702,1909552
0.334,0.028,-1.133,-6.458,4.748,-1.160,1913563
0.335,0.031,-1.132,-6.183,3.786,-1.420,1917574
0.342,0.035,-1.132,-6.244,2.321,-1.786,1921586
0.337,0.037,-1.114,-5.771,1.313,-2.107,1925597
0.333,0.041,-1.119,-5.618,0.977,-2.321,1929608
0.332,0.036,-1.125,-5.634,-0.031,-2.733,1933628
0.330,0.038,-1.127,-5.542,-0.015,-2.885,1937639
0.331,0.024,-1.128,-5.679,-0.458,-3.084,1941650
0.328,0.030,-1.126,-5.939,-0.824,-3.298,1945661
0.325,0.024,-1.137,-5.908,-0.916,-3.588,1949672
0.315,0.027,-1.134,-6.183,-1.282,-3.603,1953693
0.312,0.030,-1.139,-6.427,-2.321,-3.573,1957704
0.304,0.025,-1.135,-6.641,-2.916,-3.588,1961716
0.310,0.026,-1.143,-6.733,-3.099,-3.557,1965727
0.303,0.030,-1.138,-7.038,-3.038,-3.771,1969738
0.305,0.031,-1.134,-7.023,-1.969,-3.573,1973750
0.295,0.034,-1.128,-7.176,-1.573,-3.435,1977760
0.294,0.037,-1.135,-7.221,-1.374,-3.237,1981771
0.295,0.035,-1.137,-7.038,-0.992,-3.053,1985782
0.287,0.039,-1.123,-7.298,0.153,-2.901,1989793
0.289,0.030,-1.126,-7.405,0.870,-2.748,1993804
0.287,0.033,-1.129,-7.420,1.252,-2.809,1997814
0.297,0.033,-1.125,-7.664,2.168,-2.595,2001825
