acc_x,acc_y,acc_z,gyro_x,gyro_y,gyro_z,time
0.262,-0.013,-1.100,-2.931,0.687,1.954,0
0.254,-0.009,-1.109,-2.687,0.168,2.275,4051
0.257,-0.012,-1.097,-2.305,0.443,2.305,8063
0.255,-0.019,-1.100,-2.153,0.473,2.137,12074
0.251,-0.022,-1.102,-2.031,0.809,1.817,16085
0.250,-0.021,-1.104,-2.107,0.855,1.817,20096
0.249,-0.023,-1.104,-2.458,1.420,1.313,24107
0.258,-0.022,-1.098,-2.733,1.664,1.176,28118
0.258,-0.033,-1.099,-3.008,1.908,0.977,32128
0.259,-0.027,-1.106,-3.420,1.710,0.916,36139
0.262,-0.031,-1.105,-3.756,1.771,0.824,40151
0.265,-0.029,-1.098,-4.031,1.542,0.977,44162
0.275,-0.027,-1.110,-4.443,1.084,1.115,48171
0.275,-0.020,-1.101,-4.733,0.641,1.237,52181
0.273,-0.025,-1.098,-4.748,0.412,1.206,56192
0.264,-0.027,-1.091,-4.885,-0.015,1.237,60203
0.263,-0.022,-1.093,-4.962,-0.061,1.328,64214
0.259,-0.014,-1.094,-5.176,-0.351,1.038,68225
0.259,-0.012,-1.101,-4.931,-0.076,0.901,72236
0.264,-0.008,-1.106,-4.595,0.260,0.626,76247
0.259,-0.013,-1.108,-4.198,0.382,0.290,80259
0.265,-0.022,-1.105,-4.046,0.198,0.458,84270
0.266,-0.022,-1.110,-3.847,0.412,0.290,88281
0.261,-0.024,-1.103,-3.420,0.534,0.336,92292
0.264,-0.026,-1.108,-3.206,0.595,0.565,96303
0.263,-0.019,-1.115,-3.130,0.779,0.489,100314
0.263,-0.028,-1.111,-2.885,0.718,0.763,104326
0.266,-0.023,-1.117,-2.962,0.565,0.901,108338
0.265,-0.032,-1.114,-2.748,0.962,0.947,112349
0.266,-0.030,-1.112,-2.656,1.008,0.702,116360
0.269,-0.029,-1.108,-2.656,1.053,0.595,120371
0.268,-0.027,-1.110,-3.069,1.145,0.458,124383
0.269,-0.030,-1.105,-3.603,0.885,0.336,128393
0.272,-0.039,-1.107,-4.260,0.748,0.397,132404
0.269,-0.030,-1.102,-5.115,0.229,0.214,136415
0.271,-0.035,-1.102,-5.679,-0.122,0.015,140427
0.271,-0.041,-1.110,-6.137,-0.305,0.107,144438
0.267,-0.033,-1.102,-6.351,-0.809,0.168,148448
0.263,-0.030,-1.104,-6.794,-1.008,0.244,152459
0.261,-0.027,-1.105,-6.931,-0.870,0.275,156470
0.257,-0.029,-1.104,-7.267,-0.519,0.076,160481
0.263,-0.022,-1.105,-7.191,-0.412,-0.137,164492
0.254,-0.022,-1.112,-6.595,-0.290,-0.382,168504
0.253,-0.013,-1.102,-6.168,0.214,-0.473,172515
0.256,-0.016,-1.105,-5.191,0.824,-0.473,176526
0.251,-0.017,-1.109,-4.550,1.069,-0.366,180537
0.253,-0.016,-1.105,-4.061,1.695,-0.229,184548
0.258,-0.020,-1.102,-3.893,2.290,-0.229,188558
0.255,-0.019,-1.091,-3.664,2.397,-0.137,192569
0.270,-0.016,-1.101,-3.527,2.748,0.229,196580
0.260,-0.025,-1.098,-3.679,2.733,0.412,200591
0.269,-0.027,-1.104,-3.756,2.443,0.519,204602
0.270,-0.030,-1.093,-3.832,2.214,0.504,208614
0.269,-0.029,-1.093,-4.137,1.969,0.336,212626
0.265,-0.032,-1.101,-4.397,1.588,0.229,216636
0.265,-0.022,-1.096,-4.794,1.618,0.092,220647
0.258,-0.025,-1.101,-5.084,1.237,-0.061,224658
0.252,-0.024,-1.097,-5.191,1.298,-0.443,228670
0.248,-0.022,-1.097,-5.344,1.740,-0.473,232690
0.242,-0.024,-1.099,-5.313,2.015,-0.534,236701
0.235,-0.020,-1.098,-5.466,2.901,-0.718,240713
0.228,-0.020,-1.108,-5.405,3.527,-0.763,244724
0.223,-0.021,-1.115,-5.435,4.321,-0.687,248737
0.222,-0.024,-1.113,-5.084,4.947,-0.641,252748
0.212,-0.016,-1.117,-4.855,5.313,-0.550,256759
0.221,-0.022,-1.115,-4.443,5.771,0.076,260770
0.205,-0.023,-1.127,-3.847,6.061,0.550,264781
0.202,-0.019,-1.119,-3.160,6.275,1.008,268794
0.197,-0.029,-1.132,-2.687,6.244,1.267,272805
0.177,-0.027,-1.135,-2.229,6.305,1.420,276816
0.169,-0.027,-1.140,-2.031,6.748,1.664,280827
0.159,-0.036,-1.140,-2.153,7.237,1.191,284838
0.154,-0.047,-1.144,-2.336,7.328,0.641,288849
0.132,-0.046,-1.142,-2.427,7.557,-0.366,292859
0.116,-0.042,-1.143,-2.733,7.588,-0.977,296870
0.101,-0.035,-1.145,-2.840,7.740,-2.000,300881
0.089,-0.028,-1.147,-2.534,8.214,-2.611,304892
0.077,-0.026,-1.147,-2.504,8.656,-2.641,308904
0.068,-0.025,-1.158,-2.458,9.405,-2.351,312915
0.052,-0.027,-1.155,-2.595,9.695,-1.496,316926
0.049,-0.025,-1.163,-3.038,9.893,-0.351,320937
0.037,-0.032,-1.166,-3.405,9.695,0.718,324948
0.023,-0.029,-1.173,-3.725,9.237,1.771,328959
0.019,-0.015,-1.166,-3.985,9.099,2.672,332979
0.007,-0.005,-1.168,-4.183,8.595,3.481,336990
-0.005,0.003,-1.178,-3.908,8.183,3.740,341001
-0.009,0.019,-1.184,-3.893,8.519,3.878,345012
-0.032,0.017,-1.190,-3.786,8.718,4.046,349023
-0.040,0.012,-1.196,-4.504,8.779,4.595,353044
-0.056,-0.003,-1.192,-5.679,8.901,5.679,357055
-0.058,-0.021,-1.198,-7.099,8.840,7.023,361067
-0.055,-0.026,-1.201,-8.137,8.733,8.733,365077
-0.053,-0.026,-1.206,-9.176,8.595,10.595,369088
-0.050,-0.025,-1.199,-10.046,7.542,12.748,373101
-0.053,-0.014,-1.180,-10.626,7.053,15.099,377112
-0.039,-0.008,-1.187,-10.947,5.588,16.458,381123
-0.036,-0.008,-1.167,-10.794,4.427,16.580,385134
-0.038,0.001,-1.161,-10.718,3.237,15.466,389145
-0.039,0.022,-1.163,-10.397,2.168,13.679,393155
-0.046,0.033,-1.158,-9.649,1.359,11.252,397166
-0.059,0.045,-1.140,-8.550,1.099,8.855,401177
-0.067,0.043,-1.141,-8.443,1.328,6.870,405188
-0.085,0.027,-1.139,-8.443,1.649,5.328,409199
-0.074,0.013,-1.140,-9.359,1.573,4.809,413219
-0.071,-0.011,-1.139,-9.832,1.069,5.023,417230
-0.062,-0.010,-1.133,-10.519,0.534,6.412,421241
-0.060,-0.015,-1.151,-11.069,-1.023,8.076,425252
-0.053,-0.016,-1.151,-11.435,-3.008,11.023,429263
-0.050,-0.013,-1.157,-11.420,-5.542,15.191,433283
-0.037,-0.025,-1.172,-11.099,-8.000,19.664,437294
-0.027,-0.030,-1.151,-10.076,-10.336,24.015,441305
-0.026,-0.037,-1.150,-8.443,-12.763,27.802,445316
-0.031,-0.024,-1.154,-6.580,-15.878,31.496,449327
-0.026,-0.029,-1.160,-5.863,-17.893,34.321,453345
-0.020,-0.037,-1.168,-5.786,-21.313,36.794,457356
0.005,-0.057,-1.168,-6.458,-24.977,37.939,461368
0.013,-0.066,-1.172,-7.359,-27.786,37.389,465378
0.033,-0.073,-1.179,-8.198,-31.298,36.656,469389
0.046,-0.068,-1.179,-8.748,-34.687,34.275,473400
0.051,-0.053,-1.186,-8.947,-37.557,30.443,477412
0.054,-0.043,-1.197,-9.527,-40.260,27.008,481423
0.039,-0.063,-1.188,-10.840,-42.336,23.863,485435
0.024,-0.068,-1.192,-12.641,-43.695,21.435,489446
0.016,-0.083,-1.188,-14.336,-43.664,19.985,493457
0.004,-0.094,-1.179,-16.153,-42.641,20.214,497468
-0.004,-0.114,-1.176,-17.939,-41.252,21.618,501480
-0.001,-0.117,-1.184,-19.481,-39.160,24.000,505490
-0.014,-0.119,-1.166,-20.595,-36.168,26.763,509501
-0.021,-0.116,-1.158,-21.634,-33.115,29.267,513511
-0.029,-0.111,-1.160,-21.649,-30.107,31.008,517523
-0.044,-0.090,-1.142,-21.084,-27.481,31.710,521534
-0.046,-0.062,-1.138,-19.359,-24.855,31.374,525545
-0.042,-0.033,-1.114,-16.183,-21.756,30.168,529556
-0.028,-0.005,-1.104,-12.229,-18.504,27.924,533566
-0.013,0.007,-1.105,-7.191,-15.115,24.046,537578
0.001,0.022,-1.101,-2.458,-12.183,20.244,541588
0.015,0.003,-1.123,0.702,-10.809,17.053,545599
0.042,-0.017,-1.126,3.267,-9.878,15.847,549610
0.079,-0.057,-1.137,5.786,-9.267,17.008,553630
0.125,-0.108,-1.155,6.641,-10.351,20.000,557642
0.169,-0.159,-1.177,6.412,-13.099,24.519,561652
0.206,-0.191,-1.185,5.359,-15.969,28.763,565664
0.219,-0.190,-1.187,4.153,-20.198,33.786,569675
0.222,-0.159,-1.187,3.160,-23.573,37.664,573694
0.191,-0.139,-1.193,1.710,-25.924,40.626,577706
0.183,-0.139,-1.197,0.107,-25.908,41.466,581717
0.167,-0.152,-1.200,-3.511,-25.221,39.878,585728
0.141,-0.159,-1.197,-7.237,-23.588,36.550,589740
0.106,-0.146,-1.188,-8.748,-19.618,31.588,593751
0.085,-0.123,-1.174,-10.550,-16.168,25.618,597762
0.079,-0.091,-1.165,-11.618,-11.649,19.420,601773
0.092,-0.059,-1.160,-11.786,-6.305,13.084,605784
0.088,-0.041,-1.160,-12.382,-0.870,7.954,609795
0.105,-0.046,-1.151,-12.382,4.656,4.015,613806
0.119,-0.046,-1.148,-11.649,9.542,0.626,617816
0.138,-0.054,-1.142,-11.420,12.901,-3.115,621827
0.161,-0.067,-1.136,-10.794,14.718,-6.519,625838
0.185,-0.071,-1.131,-11.511,13.588,-10.534,629849
0.200,-0.066,-1.117,-12.489,10.611,-12.809,633869
0.227,-0.056,-1.118,-12.641,7.008,-12.626,637880
0.251,-0.046,-1.115,-11.160,3.130,-11.160,641891
0.257,-0.034,-1.114,-9.557,-1.252,-8.290,645902
0.250,-0.022,-1.118,-8.092,-7.420,-3.985,649918
0.258,-0.024,-1.115,-6.977,-13.542,1.053,653929
0.261,-0.019,-1.099,-6.137,-18.733,5.496,657940
0.265,-0.027,-1.109,-6.260,-23.863,9.344,661952
0.247,-0.035,-1.095,-6.489,-28.534,12.855,665963
0.223,-0.030,-1.096,-6.015,-31.802,15.725,669975
0.190,-0.021,-1.081,-4.550,-33.435,18.061,673986
0.156,-0.002,-1.076,-1.985,-32.962,19.481,677997
0.130,0.014,-1.071,0.336,-31.908,19.267,682008
0.112,0.027,-1.071,1.374,-29.985,17.420,686019
0.098,0.003,-1.067,1.710,-26.962,13.740,690030
0.092,-0.025,-1.078,1.939,-22.260,8.351,694041
0.075,-0.055,-1.096,1.954,-17.023,3.038,698053
0.072,-0.050,-1.109,2.427,-11.313,-2.443,702064
0.077,-0.054,-1.122,2.931,-6.107,-6.183,706075
0.099,-0.043,-1.128,3.924,-1.023,-8.229,710086
0.133,-0.055,-1.128,6.031,3.573,-10.061,714097
0.157,-0.044,-1.105,8.794,6.565,-11.313,718108
0.177,-0.025,-1.098,12.092,7.969,-11.832,722119
0.185,-0.013,-1.100,14.794,8.779,-11.481,726130
0.191,-0.023,-1.091,17.221,8.031,-9.527,730141
0.228,-0.043,-1.089,19.481,7.496,-7.053,734152
0.260,-0.069,-1.103,21.420,5.893,-4.351,738159
0.300,-0.101,-1.110,20.565,2.382,-1.298,742171
0.314,-0.137,-1.130,18.260,-2.763,3.099,746182
0.343,-0.151,-1.128,15.344,-7.069,8.626,750194
0.375,-0.143,-1.127,13.084,-11.389,14.275,754205
0.383,-0.128,-1.113,11.420,-15.588,18.183,758216
0.362,-0.114,-1.105,10.748,-19.252,20.885,762227
0.317,-0.111,-1.089,10.275,-21.420,21.435,766238
0.279,-0.108,-1.099,10.397,-22.260,19.557,770250
0.251,-0.090,-1.107,11.481,-22.351,15.939,774261
0.234,-0.081,-1.112,13.496,-21.313,10.672,778272
0.232,-0.062,-1.129,16.260,-17.817,6.824,782283
0.226,-0.061,-1.147,20.504,-13.008,4.885,786294
0.253,-0.084,-1.164,23.466,-8.290,3.832,790305
0.325,-0.122,-1.145,25.786,-4.382,1.084,794316
0.372,-0.152,-1.137,27.160,-2.916,-2.550,798331
0.385,-0.152,-1.143,27.878,-3.160,-4.382,802343
0.377,-0.150,-1.142,28.412,-2.855,-4.336,806353
0.366,-0.141,-1.149,28.290,-1.374,-3.450,810364
0.351,-0.132,-1.169,26.901,0.366,-2.122,814375
0.328,-0.128,-1.183,24.595,2.321,0.092,818386
0.305,-0.097,-1.156,23.985,4.962,3.450,822397
0.274,-0.088,-1.164,23.634,8.336,6.855,826408
0.241,-0.081,-1.162,23.053,10.809,11.420,830419
0.228,-0.096,-1.154,20.794,14.168,17.344,834430
0.269,-0.114,-1.156,18.748,16.519,23.099,838441
0.321,-0.134,-1.150,15.893,16.550,27.557,842453
0.351,-0.147,-1.143,13.084,15.206,31.725,846464
0.347,-0.152,-1.123,10.031,13.710,36.198,850476
0.341,-0.145,-1.127,7.450,11.328,41.160,854487
0.328,-0.137,-1.126,5.435,9.740,46.046,858497
0.321,-0.138,-1.112,3.374,8.687,49.878,862508
0.316,-0.135,-1.109,2.443,8.962,52.672,866519
0.302,-0.149,-1.102,1.328,10.046,53.893,870531
0.319,-0.133,-1.102,1.756,12.321,53.496,874542
0.299,-0.152,-1.104,1.099,14.321,52.397,878550
0.283,-0.164,-1.097,-0.916,17.496,52.000,882561
0.271,-0.167,-1.091,-2.656,21.832,51.908,886572
0.274,-0.171,-1.080,-4.809,26.382,51.344,890583
0.290,-0.179,-1.085,-7.023,31.267,49.679,894594
0.322,-0.187,-1.076,-10.382,34.809,47.450,898605
0.363,-0.198,-1.072,-14.550,36.885,45.191,902616
0.383,-0.189,-1.064,-19.023,37.328,43.634,906627
0.388,-0.184,-1.058,-23.267,37.298,42.260,910638
0.402,-0.164,-1.052,-26.366,37.237,41.374,914649
0.417,-0.134,-1.046,-29.099,36.947,39.740,918661
0.425,-0.120,-1.041,-29.939,35.817,39.344,922682
0.403,-0.094,-1.014,-28.153,34.489,40.076,926692
0.364,-0.045,-0.988,-23.756,33.603,42.351,930703
0.346,0.004,-0.990,-17.863,33.038,46.809,934715
0.362,0.010,-0.980,-12.336,31.237,52.168,938728
0.404,-0.013,-0.958,-7.695,27.695,57.573,942743
0.441,-0.042,-0.972,-4.519,23.313,61.725,946754
0.431,-0.073,-0.982,-2.015,18.290,66.275,950765
0.419,-0.073,-0.990,0.397,14.214,70.947,954776
0.396,-0.071,-0.998,3.145,11.908,74.992,958787
0.388,-0.086,-1.023,5.221,10.809,77.969,962799
0.398,-0.110,-1.027,5.802,10.611,78.947,966810
0.428,-0.133,-1.035,5.985,10.962,77.847,970822
0.468,-0.163,-1.052,4.977,11.450,74.626,974833
0.486,-0.171,-1.068,3.771,12.168,71.588,978844
0.486,-0.165,-1.070,2.718,12.947,69.466,982854
0.487,-0.149,-1.069,2.473,14.015,67.756,986865
0.516,-0.116,-1.063,3.008,14.351,65.160,990876
0.551,-0.107,-1.071,3.481,12.656,62.855,994887
0.585,-0.120,-1.079,3.634,9.878,60.916,998898
0.590,-0.122,-1.102,3.527,7.130,59.374,1002908
0.560,-0.119,-1.105,3.221,4.473,58.076,1006919
0.535,-0.109,-1.103,3.374,2.260,56.427,1010930
0.527,-0.108,-1.092,3.695,0.015,53.847,1014941
0.528,-0.103,-1.098,4.656,-2.198,51.359,1018952
0.518,-0.102,-1.089,5.221,-4.168,49.557,1022972
0.499,-0.097,-1.084,5.420,-4.794,48.412,1026983
0.472,-0.095,-1.086,6.000,-4.229,47.527,1030995
0.464,-0.070,-1.072,7.282,-3.573,46.809,1035005
0.482,-0.061,-1.063,8.794,-3.176,45.969,1039016
0.510,-0.073,-1.061,9.710,-4.046,45.069,1043037
0.512,-0.091,-1.068,9.954,-4.687,43.939,1047048
0.519,-0.103,-1.065,9.969,-6.137,41.740,1051059
0.535,-0.110,-1.064,9.740,-7.985,38.122,1055070
0.555,-0.104,-1.068,9.374,-10.626,34.137,1059081
0.533,-0.111,-1.085,8.962,-13.420,30.290,1063093
0.517,-0.104,-1.088,8.687,-15.450,27.374,1067104
0.477,-0.097,-1.103,9.084,-16.321,24.748,1071115
0.438,-0.085,-1.110,9.863,-16.061,22.092,1075126
0.419,-0.084,-1.106,10.718,-14.840,19.557,1079137
0.396,-0.100,-1.118,11.252,-13.924,17.206,1083149
0.381,-0.131,-1.138,9.878,-12.565,15.511,1087160
0.364,-0.160,-1.154,7.221,-10.305,13.405,1091171
0.359,-0.170,-1.158,4.290,-8.580,11.374,1095182
0.364,-0.166,-1.154,1.115,-7.023,9.069,1099193
0.348,-0.163,-1.142,-2.382,-6.290,7.344,1103214
0.336,-0.170,-1.148,-5.710,-4.901,6.718,1107225
0.330,-0.156,-1.141,-8.779,-3.588,6.275,1111237
0.331,-0.146,-1.130,-11.221,-2.275,5.832,1115248
0.311,-0.124,-1.124,-13.206,-1.084,5.160,1119259
0.315,-0.110,-1.109,-13.359,-0.382,5.435,1123280
0.307,-0.092,-1.105,-12.794,-0.305,5.679,1127291
0.299,-0.095,-1.100,-12.947,0.153,5.924,1131302
0.287,-0.105,-1.096,-12.321,0.687,5.985,1135313
0.278,-0.102,-1.092,-11.313,1.008,5.618,1139324
0.285,-0.099,-1.063,-9.817,1.069,4.733,1143342
0.297,-0.108,-1.059,-8.229,0.885,3.542,1147354
0.298,-0.118,-1.059,-7.496,0.000,2.412,1151365
0.298,-0.119,-1.049,-7.221,-0.672,1.282,1155377
0.296,-0.122,-1.058,-7.359,-1.038,-0.183,1159388
0.284,-0.133,-1.056,-7.802,-0.794,-1.282,1163399
0.264,-0.119,-1.049,-7.863,-0.672,-2.031,1167410
0.255,-0.120,-1.043,-7.771,-0.351,-2.443,1171421
0.243,-0.124,-1.056,-7.863,0.244,-2.427,1175432
0.233,-0.126,-1.055,-7.832,1.008,-2.260,1179443
0.226,-0.128,-1.064,-8.137,0.977,-2.458,1183454
0.230,-0.124,-1.066,-8.122,0.427,-2.595,1187465
0.228,-0.132,-1.047,-8.107,-0.794,-2.534,1191476
0.231,-0.128,-1.045,-7.802,-2.046,-2.031,1195487
0.212,-0.122,-1.042,-7.115,-2.947,-1.618,1199498
0.199,-0.115,-1.048,-5.985,-3.878,-1.008,1203508
0.202,-0.117,-1.034,-4.641,-4.595,-0.473,1207519
0.216,-0.125,-1.039,-3.679,-5.191,-0.092,1211530
0.226,-0.141,-1.045,-3.405,-6.137,-0.427,1215541
0.211,-0.139,-1.058,-3.298,-6.153,-0.519,1219553
0.204,-0.144,-1.051,-3.374,-6.076,-0.870,1223568
0.188,-0.149,-1.058,-3.389,-5.282,-1.359,1227579
0.182,-0.147,-1.058,-3.191,-3.664,-1.511,1231590
0.170,-0.146,-1.062,-3.359,-1.969,-1.847,1235601
0.168,-0.155,-1.060,-3.405,0.031,-1.328,1239612
0.168,-0.150,-1.074,-3.939,2.183,-1.649,1243632
0.203,-0.154,-1.068,-4.779,2.565,-2.565,1247644
0.224,-0.161,-1.073,-5.374,1.389,-3.817,1251655
0.226,-0.158,-1.074,-6.458,-0.153,-4.137,1255665
0.219,-0.155,-1.080,-7.099,-1.374,-4.305,1259676
0.212,-0.142,-1.075,-7.038,-2.412,-4.382,1263697
0.205,-0.128,-1.078,-6.580,-2.931,-4.443,1267708
0.199,-0.125,-1.083,-5.969,-3.298,-4.611,1271719
0.200,-0.130,-1.089,-5.649,-3.573,-4.565,1275730
0.193,-0.134,-1.089,-5.160,-3.420,-4.580,1279741
0.181,-0.133,-1.102,-5.069,-2.763,-4.443,1283753
0.172,-0.138,-1.106,-4.290,-1.557,-4.733,1287764
0.160,-0.139,-1.108,-3.679,-0.198,-4.351,1291774
0.163,-0.134,-1.094,-3.145,1.282,-4.305,1295785
0.167,-0.138,-1.109,-2.824,2.641,-3.710,1299796
0.170,-0.142,-1.114,-3.450,3.954,-2.992,1303807
0.170,-0.148,-1.110,-4.305,4.977,-1.756,1307817
0.167,-0.148,-1.109,-4.992,6.290,-0.763,1311828
0.161,-0.139,-1.098,-5.344,7.908,-0.015,1315839
0.172,-0.142,-1.109,-5.496,9.252,0.244,1319850
0.184,-0.156,-1.116,-5.267,9.374,0.061,1323870
0.217,-0.150,-1.109,-5.634,8.076,-0.733,1327882
0.251,-0.165,-1.107,-6.061,5.557,-1.847,1331893
0.251,-0.163,-1.102,-6.763,2.565,-2.763,1335904
0.244,-0.157,-1.104,-7.603,-0.550,-3.740,1339918
0.231,-0.151,-1.106,-8.519,-2.611,-4.733,1343929
0.200,-0.135,-1.113,-8.748,-3.695,-5.359,1347940
0.181,-0.126,-1.123,-8.611,-4.031,-5.542,1351952
0.173,-0.130,-1.120,-8.412,-3.740,-5.282,1355962
0.160,-0.131,-1.123,-8.321,-2.565,-4.824,1359973
0.158,-0.140,-1.125,-8.214,-1.878,-4.244,1363984
0.156,-0.137,-1.129,-8.061,-0.534,-3.664,1367996
0.147,-0.133,-1.113,-7.832,0.733,-2.916,1372007
0.145,-0.127,-1.118,-7.679,1.679,-2.489,1376019
0.153,-0.131,-1.117,-7.191,2.794,-1.725,1380030
0.153,-0.128,-1.121,-6.458,3.847,-1.405,1384041
0.147,-0.123,-1.122,-5.664,5.023,-0.962,1388053
0.151,-0.127,-1.118,-4.916,6.260,-0.504,1392064
0.165,-0.124,-1.112,-3.939,6.748,0.046,1396076
0.193,-0.121,-1.109,-2.931,5.832,-0.351,1400087
0.207,-0.135,-1.108,-2.260,3.847,-0.855,1404098
0.213,-0.143,-1.117,-1.481,1.359,-1.359,1408109
0.201,-0.139,-1.115,-1.206,-0.763,-1.237,1412120
0.191,-0.141,-1.120,-0.855,-2.611,-1.160,1416131
0.188,-0.139,-1.116,-1.023,-3.664,-1.588,1420142
0.181,-0.152,-1.142,-1.557,-4.473,-2.137,1424154
0.171,-0.148,-1.130,-2.290,-4.534,-2.580,1428162
0.164,-0.156,-1.130,-3.237,-4.427,-2.611,1432173
0.139,-0.152,-1.124,-4.321,-2.962,-2.412,1436184
0.135,-0.157,-1.129,-5.160,-1.282,-2.351,1440195
0.125,-0.152,-1.130,-6.000,0.382,-1.878,1444206
0.129,-0.154,-1.135,-6.855,2.046,-1.389,1448220
0.132,-0.157,-1.134,-7.863,3.496,-0.885,1452231
0.140,-0.153,-1.137,-8.260,4.779,-0.809,1456242
0.149,-0.147,-1.130,-9.176,5.466,-0.382,1460253
0.164,-0.145,-1.125,-9.481,5.603,-0.183,1464264
0.172,-0.137,-1.124,-9.695,4.992,0.214,1468276
0.175,-0.137,-1.124,-9.679,4.244,0.855,1472287
0.177,-0.126,-1.120,-9.282,3.557,1.420,1476298
0.175,-0.128,-1.128,-8.290,2.824,1.588,1480309
0.179,-0.124,-1.126,-7.435,2.229,1.924,1484320
0.186,-0.119,-1.124,-6.198,1.802,2.168,1488332
0.188,-0.123,-1.121,-5.450,0.962,2.565,1492343
0.197,-0.126,-1.101,-4.611,0.305,2.168,1496354
0.200,-0.138,-1.108,-4.046,-0.229,2.183,1500365
0.189,-0.141,-1.101,-3.603,-0.458,2.061,1504376
0.180,-0.138,-1.101,-3.145,-0.733,1.649,1508386
0.187,-0.141,-1.103,-2.794,-0.351,1.237,1512398
0.198,-0.139,-1.111,-2.489,-0.672,0.382,1516408
0.198,-0.145,-1.100,-3.298,-0.763,-0.153,1520419
0.192,-0.151,-1.112,-3.863,-1.053,-0.687,1524430
0.188,-0.152,-1.117,-4.687,-0.901,-0.962,1528441
0.187,-0.155,-1.113,-5.420,-0.305,-1.099,1532452
0.179,-0.146,-1.110,-5.756,0.183,-1.115,1536463
0.181,-0.149,-1.109,-6.061,0.580,-0.916,1540474
0.186,-0.142,-1.111,-6.489,0.626,-0.748,1544485
0.185,-0.137,-1.115,-6.779,1.130,-0.489,1548496
0.185,-0.135,-1.108,-7.328,1.267,-0.061,1552507
0.179,-0.127,-1.121,-7.099,1.389,0.305,1556519
0.165,-0.115,-1.113,-6.290,1.664,0.840,1560530
0.176,-0.122,-1.117,-5.374,1.603,0.947,1564541
0.183,-0.123,-1.124,-4.214,1.267,1.023,1568549
0.184,-0.128,-1.117,-3.542,0.763,0.748,1572561
0.185,-0.126,-1.119,-3.359,-0.214,0.656,1576571
0.190,-0.133,-1.109,-2.947,-0.748,0.611,1580582
0.180,-0.129,-1.106,-2.611,-1.160,0.809,1584593
0.185,-0.129,-1.105,-2.092,-1.588,1.008,1588605
0.187,-0.129,-1.099,-1.710,-2.305,0.916,1592616
0.190,-0.139,-1.103,-1.496,-3.069,1.206,1596628
0.184,-0.140,-1.105,-1.496,-3.603,1.695,1600639
0.178,-0.135,-1.107,-1.527,-3.542,1.893,1604650
0.182,-0.142,-1.104,-1.954,-3.588,2.015,1608662
0.177,-0.153,-1.102,-2.626,-3.557,1.832,1612683
0.187,-0.160,-1.110,-3.527,-3.863,1.237,1616694
0.186,-0.158,-1.117,-4.122,-4.031,0.229,1620705
0.177,-0.158,-1.110,-4.641,-3.786,-0.366,1624716
0.165,-0.152,-1.112,-5.420,-3.145,-0.672,1628728
0.156,-0.146,-1.124,-6.061,-1.603,-0.748,1632743
0.154,-0.141,-1.124,-6.580,-0.214,-0.519,1636754
0.156,-0.133,-1.125,-6.870,1.282,-0.153,1640765
0.163,-0.129,-1.115,-7.099,2.611,0.611,1644776
0.174,-0.129,-1.122,-6.931,3.344,1.160,1648787
0.175,-0.135,-1.130,-7.069,3.511,1.710,1652799
0.177,-0.135,-1.123,-7.328,3.878,1.878,1656810
0.184,-0.138,-1.119,-7.405,3.664,1.802,1660822
0.197,-0.137,-1.118,-7.405,3.206,1.542,1664833
0.197,-0.133,-1.125,-7.588,2.641,1.160,1668844
0.194,-0.131,-1.116,-7.786,2.168,0.916,1672854
0.194,-0.128,-1.112,-7.802,1.985,0.718,1676865
0.186,-0.118,-1.110,-7.298,1.985,1.160,1680876
0.179,-0.113,-1.099,-6.779,2.336,1.573,1684887
0.176,-0.111,-1.104,-6.076,2.443,2.015,1688898
0.177,-0.109,-1.090,-5.420,2.870,2.443,1692908
0.180,-0.118,-1.101,-5.527,2.656,2.382,1696919
0.202,-0.129,-1.094,-5.634,2.656,1.679,1700930
0.212,-0.142,-1.108,-6.137,1.710,0.244,1704942
0.212,-0.139,-1.098,-6.718,0.489,-0.931,1708953
0.205,-0.136,-1.100,-7.069,-0.580,-1.771,1712972
0.195,-0.131,-1.099,-7.298,-1.344,-2.519,1716983
0.196,-0.125,-1.106,-7.252,-1.435,-2.840,1720994
0.190,-0.120,-1.103,-7.588,-0.947,-3.069,1725005
0.183,-0.119,-1.103,-7.878,-0.305,-2.885,1729016
0.177,-0.121,-1.102,-7.756,-0.046,-2.458,1733037
0.174,-0.117,-1.100,-7.542,0.275,-1.832,1737048
0.160,-0.122,-1.114,-7.130,1.191,-1.237,1741060
0.171,-0.125,-1.107,-6.733,1.603,-0.733,1745071
0.172,-0.124,-1.105,-6.748,1.374,-0.458,1749082
0.172,-0.127,-1.107,-6.763,1.359,-0.336,1753094
0.170,-0.126,-1.106,-6.840,0.947,-0.031,1757105
0.168,-0.131,-1.105,-7.191,1.160,0.061,1761116
0.161,-0.127,-1.112,-7.496,1.313,0.244,1765127
0.160,-0.122,-1.096,-7.710,1.527,0.305,1769138
0.159,-0.116,-1.103,-7.725,2.122,0.168,1773148
0.158,-0.115,-1.106,-8.015,2.550,0.504,1777159
0.152,-0.107,-1.093,-7.863,3.237,1.221,1781170
0.167,-0.107,-1.107,-7.817,3.939,1.511,1785181
0.180,-0.110,-1.106,-7.725,4.611,1.618,1789192
0.191,-0.115,-1.112,-7.618,5.115,1.603,1793212
0.195,-0.113,-1.108,-7.267,5.252,1.481,1797224
0.189,-0.119,-1.105,-7.267,5.328,1.328,1801234
0.202,-0.121,-1.101,-7.389,5.237,0.748,1805245
0.205,-0.122,-1.101,-7.542,5.328,0.000,1809256
0.222,-0.117,-1.107,-7.771,5.053,-0.656,1813276
0.219,-0.120,-1.088,-7.527,4.336,-1.588,1817287
0.215,-0.114,-1.106,-7.267,4.168,-1.893,1821298
0.206,-0.107,-1.105,-6.702,3.679,-2.168,1825310
0.209,-0.099,-1.099,-5.817,3.191,-2.214,1829321
0.207,-0.100,-1.118,-5.237,2.718,-2.321,1833339
0.210,-0.106,-1.113,-4.534,1.725,-2.244,1837350
0.212,-0.098,-1.107,-3.740,0.702,-2.092,1841361
0.200,-0.108,-1.120,-2.779,-0.840,-2.153,1845373
0.197,-0.114,-1.114,-2.244,-2.168,-1.924,1849384
0.184,-0.123,-1.120,-2.198,-3.649,-1.969,1853395
0.188,-0.132,-1.128,-2.015,-4.580,-1.969,1857406
0.182,-0.137,-1.128,-2.504,-5.038,-1.756,1861417
0.175,-0.125,-1.131,-2.687,-5.237,-1.893,1865428
0.166,-0.125,-1.128,-2.733,-4.489,-1.817,1869439
0.158,-0.130,-1.133,-2.947,-3.969,-1.847,1873450
0.161,-0.131,-1.125,-3.756,-2.809,-1.649,1877461
0.155,-0.145,-1.137,-4.565,-1.817,-1.511,1881472
0.158,-0.142,-1.141,-5.588,-0.672,-1.328,1885483
0.152,-0.146,-1.139,-6.611,0.534,-1.099,1889494
0.147,-0.143,-1.141,-7.481,1.603,-0.794,1893505
0.158,-0.133,-1.133,-8.092,2.672,-0.443,1897515
0.160,-0.136,-1.139,-8.458,3.481,-0.275,1901526
0.166,-0.140,-1.140,-8.809,4.412,-0.122,1905537
0.168,-0.140,-1.136,-9.038,4.718,-0.214,1909548
0.172,-0.136,-1.134,-9.053,4.779,-0.504,1913557
0.172,-0.135,-1.124,-9.023,4.779,-0.565,1917568
0.170,-0.126,-1.128,-8.656,4.641,-0.336,1921579
0.180,-0.120,-1.128,-8.458,4.351,-0.473,1925591
0.178,-0.125,-1.125,-8.382,4.046,-0.229,1929602
0.185,-0.119,-1.134,-8.519,3.420,-0.092,1933621
0.191,-0.126,-1.126,-8.611,2.885,-0.137,1937632
0.189,-0.133,-1.118,-8.901,2.046,-0.183,1941643
0.179,-0.139,-1.123,-9.252,1.542,-0.183,1945654
0.171,-0.139,-1.114,-9.695,1.740,-0.473,1949665
0.160,-0.131,-1.111,-10.183,2.046,-0.794,1953686
0.164,-0.129,-1.117,-10.351,2.672,-0.916,1957697
0.163,-0.127,-1.121,-10.702,3.038,-0.870,1961708
0.165,-0.119,-1.115,-10.794,3.679,-0.534,1965719
0.164,-0.114,-1.120,-10.611,3.771,-0.214,1969730
0.161,-0.110,-1.115,-10.015,4.061,0.443,1973743
0.163,-0.105,-1.113,-9.282,3.679,0.870,1977754
0.176,-0.101,-1.113,-8.351,3.084,1.252,1981765
0.183,-0.105,-1.105,-7.435,2.107,1.511,1985776
0.186,-0.111,-1.111,-6.656,1.023,1.298,1989787
0.192,-0.111,-1.111,-6.076,-0.260,0.763,1993797
0.201,-0.116,-1.102,-5.466,-1.710,0.626,1997808
0.192,-0.113,-1.103,-4.580,-2.931,0.504,2001819
