acc_x,acc_y,acc_z,gyro_x,gyro_y,gyro_z,time
0.181,0.001,-1.113,-3.267,2.000,0.397,414513059
0.177,-0.003,-1.107,-2.748,2.153,0.550,414517095
0.171,-0.011,-1.107,-2.550,2.046,0.565,414521105
0.168,-0.011,-1.113,-3.160,2.397,0.198,414525115
0.178,-0.017,-1.110,-4.229,2.275,0.260,414529126
0.184,-0.018,-1.119,-5.084,2.458,-0.076,414533136
0.182,-0.020,-1.117,-5.954,2.748,-0.504,414537145
0.181,-0.027,-1.117,-6.809,2.443,-1.206,414541157
0.185,-0.020,-1.122,-7.221,2.214,-1.160,414545166
0.185,-0.014,-1.106,-7.588,1.954,-1.313,414549175
0.179,-0.002,-1.119,-7.359,1.725,-1.374,414553185
0.172,-0.005,-1.113,-6.962,1.908,-1.084,414557195
0.179,0.002,-1.117,-6.458,2.031,-0.977,414561206
0.170,0.010,-1.105,-5.557,2.595,-0.611,414565215
0.166,0.008,-1.106,-4.748,2.885,-0.397,414569224
0.167,0.013,-1.105,-3.954,3.817,0.122,414573234
0.174,0.008,-1.100,-3.115,4.504,0.366,414577244
0.170,0.005,-1.103,-2.214,4.855,0.870,414581254
0.173,-0.000,-1.102,-1.573,5.053,0.901,414585263
0.183,-0.007,-1.111,-1.206,4.565,0.840,414589273
0.190,-0.004,-1.104,-1.176,4.122,0.947,414593283
0.196,-0.012,-1.110,-1.542,3.359,0.702,414597293
0.198,-0.017,-1.115,-2.290,2.748,0.443,414601303
0.199,-0.027,-1.121,-2.885,2.427,-0.107,414605313
0.203,-0.030,-1.122,-3.802,2.305,-0.458,414609322
0.190,-0.028,-1.116,-4.901,2.794,-0.840,414613331
0.191,-0.037,-1.129,-5.786,2.702,-1.023,414617341
0.182,-0.026,-1.137,-6.580,2.962,-1.267,414621351
0.178,-0.017,-1.128,-7.053,3.557,-1.481,414625361
0.177,-0.023,-1.117,-7.130,3.908,-1.420,414629371
0.182,-0.023,-1.121,-7.130,4.382,-1.328,414633381
0.184,-0.012,-1.124,-6.702,4.427,-1.084,414637391
0.184,-0.016,-1.116,-6.229,4.885,-0.977,414641401
0.182,-0.011,-1.116,-5.725,5.389,-0.458,414645411
0.180,-0.013,-1.112,-5.221,5.649,-0.412,414649421
0.179,-0.010,-1.113,-4.687,5.924,-0.351,414653431
0.184,-0.012,-1.107,-4.290,6.168,-0.031,414657441
0.183,-0.015,-1.115,-3.771,6.168,0.015,414661450
0.180,-0.013,-1.105,-3.069,6.214,0.122,414665460
0.179,-0.016,-1.109,-2.962,6.336,0.015,414669469
0.177,-0.014,-1.102,-2.534,6.565,0.015,414673478
0.182,-0.016,-1.104,-2.275,6.672,-0.046,414677488
0.186,-0.012,-1.101,-1.939,6.244,0.015,414681498
0.193,-0.013,-1.099,-2.260,5.496,-0.031,414685507
0.192,-0.024,-1.106,-2.580,4.305,-0.260,414689517
0.196,-0.032,-1.107,-2.992,2.947,-0.504,414693527
0.197,-0.033,-1.113,-3.893,2.458,-0.748,414697537
0.202,-0.036,-1.126,-4.565,2.214,-1.038,414701546
0.190,-0.037,-1.120,-5.450,2.107,-1.695,414705556
0.185,-0.037,-1.112,-5.771,1.496,-1.893,414709565
0.185,-0.029,-1.113,-6.321,1.420,-1.786,414713574
0.186,-0.028,-1.107,-6.168,1.511,-2.015,414717584
0.179,-0.017,-1.098,-5.679,1.863,-1.511,414721595
0.168,-0.015,-1.094,-5.450,2.489,-1.466,414725606
0.167,-0.010,-1.105,-4.992,3.176,-1.298,414729615
0.166,-0.009,-1.096,-4.489,3.893,-0.840,414733624
0.163,-0.012,-1.100,-4.122,4.565,-0.489,414737634
0.164,-0.013,-1.104,-3.557,4.947,-0.473,414741643
0.170,-0.016,-1.112,-3.252,5.069,-0.168,414745653
0.173,-0.019,-1.100,-3.206,4.611,-0.061,414749663
0.178,-0.023,-1.103,-3.145,3.863,-0.092,414753673
0.182,-0.025,-1.114,-3.710,3.832,-0.214,414757683
0.186,-0.024,-1.107,-4.137,3.313,-0.229,414761693
0.182,-0.019,-1.110,-4.794,3.328,-0.580,414765713
0.177,-0.027,-1.111,-5.084,3.145,-0.611,414769723
0.181,-0.025,-1.119,-5.573,2.794,-0.931,414773733
0.175,-0.021,-1.114,-5.756,3.267,-0.931,414777743
0.177,-0.019,-1.114,-5.450,3.099,-0.901,414781753
0.177,-0.013,-1.119,-5.252,3.206,-0.595,414785770
0.169,-0.014,-1.120,-5.099,3.206,-0.321,414789780
0.172,-0.010,-1.120,-4.870,3.221,-0.290,414793790
0.173,-0.013,-1.116,-4.672,2.916,-0.046,414797800
0.174,-0.014,-1.116,-4.656,3.084,0.046,414801810
0.173,-0.017,-1.126,-4.840,2.733,0.092,414805820
0.174,-0.017,-1.121,-4.702,2.656,0.183,414809830
0.173,-0.013,-1.120,-4.550,2.443,0.183,414813841
0.178,-0.014,-1.126,-4.656,2.366,0.382,414817850
0.173,-0.012,-1.131,-4.962,1.817,0.305,414821860
0.175,-0.016,-1.139,-5.053,1.557,0.427,414825870
0.174,-0.018,-1.132,-5.191,1.450,0.305,414829880
0.174,-0.017,-1.139,-5.237,0.962,0.443,414833890
0.173,-0.014,-1.135,-5.359,0.733,0.489,414837900
0.174,-0.016,-1.134,-5.389,1.099,0.519,414841910
0.169,-0.019,-1.141,-5.282,1.038,0.611,414845919
0.165,-0.010,-1.149,-5.267,1.389,0.794,414849929
0.175,-0.010,-1.151,-5.221,1.649,1.084,414853939
0.173,-0.010,-1.149,-5.405,1.481,0.977,414857948
0.182,-0.012,-1.144,-5.435,1.282,1.099,414861959
0.190,-0.022,-1.146,-5.786,1.084,1.267,414865968
0.187,-0.022,-1.160,-6.015,0.779,1.206,414869978
0.197,-0.025,-1.163,-5.817,0.382,1.084,414873988
0.191,-0.020,-1.173,-5.756,-0.076,0.962,414877998
0.197,-0.019,-1.171,-5.832,-0.656,1.023,414882008
0.194,-0.020,-1.180,-5.817,-1.069,0.687,414886026
0.196,-0.023,-1.185,-5.786,-1.405,0.824,414890037
0.186,-0.024,-1.186,-5.802,-1.191,0.519,414894046
0.192,-0.023,-1.191,-6.244,-0.992,0.397,414898055
0.184,-0.031,-1.191,-6.550,-0.489,0.412,414902065
0.182,-0.028,-1.191,-6.748,-0.107,0.153,414906083
0.182,-0.033,-1.202,-7.542,0.351,0.153,414910093
0.185,-0.031,-1.195,-7.893,1.099,-0.046,414914103
0.187,-0.024,-1.199,-8.595,1.771,-0.427,414918113
0.191,-0.029,-1.195,-9.191,1.847,-0.351,414922123
0.192,-0.024,-1.201,-9.969,1.985,-0.336,414926140
0.195,-0.029,-1.192,-10.992,1.924,-0.641,414930149
0.197,-0.027,-1.193,-12.107,1.786,-1.099,414934158
0.204,-0.023,-1.189,-13.008,1.298,-1.267,414938168
0.209,-0.019,-1.191,-13.908,0.519,-1.847,414942178
0.209,-0.016,-1.190,-14.779,0.397,-2.275,414946189
0.201,-0.022,-1.186,-15.603,-0.244,-2.305,414950198
0.202,-0.015,-1.182,-16.351,-0.336,-2.702,414954208
0.189,-0.013,-1.174,-16.626,-0.458,-2.931,414958218
0.183,-0.005,-1.164,-17.511,-0.733,-2.855,414962228
0.182,0.006,-1.155,-17.649,-0.595,-2.809,414966241
0.173,0.009,-1.144,-17.908,-0.229,-2.763,414970251
0.172,0.015,-1.136,-17.786,0.260,-2.534,414974261
0.166,0.011,-1.137,-17.756,0.977,-2.580,414978271
0.166,0.019,-1.136,-17.756,1.771,-2.626,414982281
0.162,0.019,-1.128,-17.649,2.244,-1.969,414986301
0.165,0.021,-1.110,-17.481,3.176,-1.847,414990310
0.158,0.023,-1.114,-17.160,3.969,-1.542,414994319
0.164,0.022,-1.117,-16.947,4.382,-1.237,414998329
0.168,0.032,-1.101,-16.550,4.916,-1.099,415002339
0.176,0.031,-1.100,-16.183,4.977,-0.916,415006358
0.182,0.031,-1.102,-15.954,4.351,-0.870,415010368
0.177,0.030,-1.096,-15.542,4.458,-0.824,415014378
0.190,0.032,-1.095,-14.794,4.382,-0.748,415018388
0.183,0.033,-1.090,-14.412,3.710,-0.901,415022398
0.187,0.038,-1.091,-13.954,3.115,-0.687,415026408
0.188,0.026,-1.097,-13.557,2.046,-0.733,415030419
0.185,0.032,-1.090,-13.298,2.107,-0.748,415034428
0.184,0.034,-1.087,-12.931,2.031,-0.824,415038437
0.187,0.038,-1.082,-12.748,1.115,-0.855,415042447
0.184,0.034,-1.082,-12.489,1.115,-0.962,415046456
0.183,0.030,-1.088,-12.046,0.229,-1.069,415050467
0.184,0.031,-1.086,-11.679,-0.122,-1.206,415054476
0.186,0.031,-1.097,-11.725,-0.672,-1.267,415058485
0.190,0.031,-1.096,-11.695,-1.008,-1.542,415062495
0.190,0.036,-1.095,-11.542,-1.786,-1.664,415066505
0.190,0.039,-1.101,-11.221,-2.305,-2.046,415070514
0.189,0.042,-1.112,-10.656,-2.947,-2.366,415074524
0.198,0.042,-1.107,-10.198,-3.603,-2.565,415078534
0.199,0.043,-1.110,-9.282,-4.107,-2.870,415082544
0.195,0.044,-1.119,-8.748,-4.305,-3.176,415086553
0.193,0.038,-1.130,-7.985,-4.901,-3.359,415090563
0.193,0.043,-1.135,-7.160,-5.328,-3.710,415094574
0.194,0.033,-1.135,-6.565,-5.786,-3.817,415098583
0.190,0.042,-1.141,-5.771,-6.061,-4.260,415102593
0.187,0.041,-1.147,-4.977,-6.321,-4.489,415106604
0.182,0.037,-1.160,-4.504,-5.802,-4.824,415110613
0.183,0.032,-1.155,-4.061,-5.893,-4.916,415114623
0.179,0.029,-1.168,-3.786,-5.420,-5.344,415118633
0.181,0.030,-1.176,-3.878,-5.359,-5.817,415122643
0.173,0.022,-1.173,-3.664,-5.298,-6.290,415126663
0.170,0.025,-1.182,-3.710,-5.053,-6.458,415130673
0.165,0.019,-1.189,-4.122,-4.779,-6.748,415134683
0.165,0.021,-1.194,-3.924,-5.008,-6.840,415138694
0.164,0.012,-1.186,-4.473,-4.702,-7.206,415142703
0.148,0.015,-1.197,-5.328,-4.595,-7.176,415146723
0.153,0.011,-1.194,-6.198,-4.519,-6.977,415150733
0.152,0.012,-1.200,-6.763,-3.939,-6.870,415154743
0.152,0.008,-1.198,-7.405,-3.511,-6.870,415158753
0.147,0.008,-1.201,-8.122,-3.420,-6.489,415162762
0.145,0.011,-1.191,-8.992,-2.656,-6.412,415166779
0.139,0.008,-1.199,-9.832,-1.924,-6.260,415170789
0.131,0.018,-1.196,-10.489,-1.115,-5.847,415174799
0.135,0.013,-1.194,-11.679,-0.748,-5.023,415178809
0.145,0.005,-1.195,-12.458,-0.916,-4.702,415182819
0.157,0.005,-1.192,-13.557,-1.145,-4.702,415186830
0.164,-0.001,-1.190,-14.656,-1.725,-4.580,415190840
0.170,0.014,-1.179,-15.359,-2.397,-4.137,415194849
0.163,0.014,-1.168,-16.214,-2.656,-3.832,415198859
0.159,0.014,-1.162,-16.809,-2.763,-3.588,415202869
0.151,0.014,-1.161,-17.237,-3.084,-3.450,415206883
0.150,0.027,-1.160,-17.649,-2.595,-3.496,415210892
0.143,0.029,-1.150,-18.275,-2.168,-3.130,415214903
0.145,0.038,-1.142,-18.870,-1.832,-2.901,415218912
0.144,0.036,-1.142,-18.962,-1.664,-2.458,415222922
0.142,0.035,-1.137,-18.748,-0.626,-2.000,415226941
0.138,0.045,-1.138,-18.290,0.092,-1.756,415230953
0.145,0.042,-1.124,-17.008,2.275,-2.015,415234963
0.143,0.032,-1.121,-12.779,7.450,-5.618,415238973
0.128,0.072,-1.123,-16.443,7.817,-7.191,415242984
0.111,0.092,-1.114,-17.359,7.282,-2.733,415246993
0.123,0.063,-1.115,-16.641,7.954,2.443,415251003
0.155,0.036,-1.105,-15.847,8.809,3.191,415255014
0.180,0.011,-1.103,-15.252,8.397,0.931,415259023
0.188,0.010,-1.117,-14.824,8.214,-0.534,415263033
0.185,0.036,-1.118,-15.084,7.328,-0.809,415267042
0.181,0.049,-1.119,-15.298,6.260,-0.855,415271053
0.179,0.046,-1.116,-15.389,5.496,-0.611,415275062
0.175,0.044,-1.113,-15.603,5.313,-0.214,415279072
0.173,0.034,-1.109,-15.435,4.397,0.061,415283082
0.180,0.042,-1.111,-15.603,3.130,0.290,415287092
0.186,0.033,-1.110,-15.908,1.191,0.397,415291102
0.194,0.022,-1.110,-16.565,-0.855,0.061,415295112
0.203,0.024,-1.110,-17.527,-2.046,-0.229,415299122
0.200,0.026,-1.112,-18.061,-3.053,-0.611,415303132
0.193,0.031,-1.107,-18.809,-3.954,-0.656,415307142
0.188,0.038,-1.110,-18.977,-5.374,-0.519,415311153
0.184,0.040,-1.115,-19.450,-6.183,-0.565,415315162
0.179,0.041,-1.115,-19.450,-6.733,-0.595,415319172
0.182,0.046,-1.104,-19.695,-7.099,-0.336,415323182
0.178,0.053,-1.102,-19.359,-6.794,-0.229,415327192
0.173,0.042,-1.103,-19.099,-6.290,-0.412,415331202
0.172,0.055,-1.119,-18.565,-5.237,-0.351,415335211
0.163,0.062,-1.098,-18.443,-4.718,-0.443,415339220
0.160,0.070,-1.113,-17.695,-4.198,-0.412,415343229
0.157,0.067,-1.111,-17.053,-2.992,-0.229,415347239
0.156,0.068,-1.111,-16.061,-1.542,-0.290,415351248
0.150,0.074,-1.115,-15.878,-0.336,-0.214,415355258
0.143,0.070,-1.116,-14.824,0.489,0.015,415359269
0.149,0.067,-1.114,-14.382,2.336,0.198,415363279
0.147,0.073,-1.118,-13.847,3.023,0.260,415367288
0.149,0.065,-1.138,-13.313,3.847,0.580,415371299
0.155,0.070,-1.125,-12.748,4.336,0.947,415375308
0.165,0.061,-1.126,-12.779,4.229,1.023,415379318
0.170,0.063,-1.126,-12.733,3.847,0.718,415383328
0.175,0.061,-1.135,-13.145,3.420,0.595,415387338
0.176,0.058,-1.142,-13.191,2.321,0.168,415391348
0.186,0.055,-1.146,-13.435,1.389,0.107,415395358
0.194,0.052,-1.150,-14.183,-0.763,-0.458,415399368
0.201,0.047,-1.149,-15.160,-2.931,-0.473,415403377
0.197,0.043,-1.151,-15.985,-5.267,-0.702,415407387
0.198,0.040,-1.155,-16.763,-6.595,-1.130,415411400
0.201,0.038,-1.152,-17.282,-8.534,-1.817,415415409
0.199,0.042,-1.151,-17.679,-9.802,-1.802,415419419
0.185,0.045,-1.144,-18.641,-10.763,-2.122,415423429
0.173,0.052,-1.148,-19.176,-11.099,-1.802,415427439
0.168,0.058,-1.148,-19.374,-10.794,-1.985,415431448
0.163,0.056,-1.136,-19.573,-10.855,-1.710,415435458
0.150,0.061,-1.142,-19.420,-10.061,-1.573,415439468
0.159,0.061,-1.136,-18.962,-9.053,-1.557,415443477
0.148,0.061,-1.139,-18.916,-8.076,-1.313,415447487
0.139,0.065,-1.130,-18.687,-6.763,-0.885,415451497
0.139,0.062,-1.130,-17.893,-4.641,-0.183,415455506
0.143,0.064,-1.134,-17.863,-2.855,0.397,415459516
0.137,0.068,-1.131,-16.962,-1.008,0.443,415463526
0.137,0.067,-1.125,-16.046,0.198,0.168,415467536
0.136,0.067,-1.121,-15.618,2.031,0.748,415471545
0.132,0.072,-1.116,-15.206,3.405,1.038,415475555
0.142,0.075,-1.123,-14.733,4.550,1.405,415479564
0.144,0.068,-1.112,-14.153,5.603,1.053,415483573
0.158,0.062,-1.106,-13.863,5.969,0.779,415487583
0.164,0.066,-1.104,-13.924,6.305,0.198,415491594
0.160,0.066,-1.106,-13.969,6.489,0.092,415495605
0.164,0.063,-1.109,-14.580,5.710,0.214,415499614
0.177,0.053,-1.110,-15.069,4.931,-0.214,415503623
0.178,0.052,-1.104,-15.557,3.954,-0.794,415507632
0.183,0.046,-1.114,-16.489,2.611,-1.511,415511642
0.190,0.047,-1.107,-17.405,1.206,-2.305,415515653
0.181,0.042,-1.106,-18.641,-0.687,-2.458,415519662
0.182,0.037,-1.095,-19.771,-2.733,-2.046,415523671
0.174,0.042,-1.091,-20.366,-4.015,-2.031,415527681
0.166,0.052,-1.098,-20.489,-5.405,-2.061,415531691
0.161,0.055,-1.090,-21.038,-6.397,-2.000,415535711
0.163,0.062,-1.078,-21.267,-6.534,-1.832,415539720
0.153,0.078,-1.077,-21.206,-6.229,-1.359,415543730
0.148,0.073,-1.070,-20.550,-6.260,-1.038,415547740
0.143,0.074,-1.064,-19.481,-5.252,-0.458,415551750
0.135,0.076,-1.067,-18.763,-4.641,-0.107,415555767
0.133,0.079,-1.062,-17.939,-3.695,0.260,415559777
0.135,0.080,-1.063,-17.221,-2.458,0.550,415563787
0.139,0.076,-1.060,-16.519,-1.267,0.611,415567797
0.137,0.082,-1.056,-15.298,0.107,0.626,415571808
0.138,0.075,-1.058,-14.565,1.115,1.023,415575818
0.145,0.071,-1.057,-13.878,1.282,1.420,415579827
0.153,0.074,-1.062,-12.931,1.573,1.618,415583836
0.156,0.073,-1.065,-12.183,2.137,1.176,415587846
0.153,0.072,-1.066,-10.947,2.504,0.519,415591857
0.150,0.063,-1.066,-10.107,2.947,1.115,415595867
0.158,0.065,-1.077,-9.130,2.153,1.756,415599877
0.160,0.062,-1.081,-8.779,1.481,1.527,415603887
0.168,0.063,-1.092,-8.031,1.435,0.809,415607896
0.170,0.057,-1.093,-7.618,0.519,-0.214,415611906
0.177,0.061,-1.096,-7.191,-0.351,-0.794,415615916
0.168,0.057,-1.085,-7.252,-0.214,-1.160,415619925
0.167,0.066,-1.097,-7.328,-0.397,-1.664,415623934
0.169,0.059,-1.099,-7.053,-0.641,-2.504,415627944
0.161,0.067,-1.108,-6.626,-0.489,-3.817,415631954
0.157,0.065,-1.094,-6.824,0.153,-3.527,415635963
0.153,0.073,-1.091,-6.550,0.595,-2.855,415639974
0.157,0.073,-1.095,-6.260,1.115,-3.588,415643983
0.164,0.084,-1.097,-5.893,1.466,-4.290,415647992
0.154,0.083,-1.099,-5.740,2.046,-4.046,415652001
0.156,0.086,-1.095,-5.252,3.130,-3.756,415656021
0.163,0.090,-1.088,-4.641,4.366,-3.710,415660031
0.156,0.095,-1.094,-4.168,4.687,-4.214,415664042
0.154,0.105,-1.094,-4.015,4.229,-4.397,415668051
0.157,0.104,-1.090,-3.573,4.382,-2.962,415672060
0.163,0.112,-1.095,-3.359,3.802,-1.740,415676080
0.171,0.098,-1.091,-3.344,3.237,-1.740,415680090
0.183,0.102,-1.097,-3.084,2.885,-1.664,415684101
0.181,0.098,-1.089,-3.099,2.229,-1.756,415688110
0.184,0.100,-1.088,-3.282,1.588,-1.527,415692120
0.191,0.099,-1.085,-2.962,0.473,-2.489,415696136
0.178,0.094,-1.100,-2.763,0.061,-2.977,415700147
0.184,0.104,-1.098,-1.817,-1.664,-2.687,415704156
0.182,0.100,-1.106,-1.435,-3.267,-2.214,415708165
0.183,0.099,-1.108,-0.870,-4.809,-2.550,415712175
0.184,0.099,-1.108,-0.260,-5.542,-3.115,415716184
0.191,0.106,-1.115,0.305,-6.931,-3.588,415720193
0.188,0.108,-1.116,0.458,-8.031,-4.519,415724203
0.191,0.108,-1.115,1.038,-9.069,-6.336,415728213
0.176,0.098,-1.120,1.069,-10.015,-6.565,415732223
0.162,0.091,-1.121,0.748,-10.046,-6.580,415736232
0.154,0.092,-1.121,1.481,-10.656,-6.992,415740242
0.148,0.096,-1.131,0.962,-11.557,-6.809,415744252
0.138,0.080,-1.125,0.290,-11.176,-6.260,415748263
0.133,0.083,-1.121,0.046,-10.519,-6.275,415752272
0.131,0.080,-1.122,-0.214,-9.863,-6.427,415756292
0.132,0.087,-1.117,-0.550,-9.176,-6.718,415760302
0.112,0.093,-1.123,-1.115,-8.366,-6.779,415764313
0.110,0.094,-1.120,-1.924,-7.359,-6.443,415768323
0.111,0.099,-1.122,-2.260,-5.328,-5.679,415772332
0.108,0.099,-1.128,-3.115,-4.977,-5.634,415776352
0.112,0.095,-1.120,-3.771,-4.305,-4.794,415780362
0.118,0.091,-1.125,-4.504,-3.069,-3.313,415784373
0.114,0.097,-1.134,-4.885,-3.221,-2.519,415788382
0.120,0.099,-1.126,-5.634,-2.977,-2.687,415792392
0.127,0.092,-1.133,-6.092,-2.870,-2.931,415796408
0.123,0.098,-1.136,-6.687,-3.145,-2.702,415800419
0.123,0.093,-1.136,-7.618,-3.344,-2.733,415804428
0.120,0.093,-1.142,-8.336,-3.908,-2.427,415808437
0.115,0.102,-1.146,-8.901,-3.969,-2.519,415812447
0.122,0.095,-1.137,-9.328,-4.015,-2.504,415816456
0.119,0.096,-1.137,-9.802,-4.031,-3.130,415820467
0.120,0.107,-1.137,-10.321,-3.435,-5.435,415824476
0.114,0.104,-1.137,-10.595,-3.130,-5.588,415828485
0.107,0.103,-1.142,-10.962,-3.557,-3.924,415832495
0.108,0.099,-1.135,-11.466,-3.099,-1.893,415836505
0.118,0.089,-1.146,-11.908,-2.702,-0.672,415840514
0.126,0.091,-1.141,-12.824,-2.702,-0.626,415844524
0.135,0.099,-1.145,-13.221,-2.687,-1.130,415848534
0.128,0.099,-1.133,-13.573,-2.336,-1.466,415852544
0.125,0.097,-1.125,-14.122,-2.000,-1.038,415856553
0.108,0.105,-1.122,-14.305,-1.557,-1.008,415860563
0.114,0.102,-1.129,-14.809,-0.672,-1.115,415864574
0.108,0.106,-1.126,-15.069,-0.107,-1.115,415868583
0.115,0.103,-1.132,-15.328,0.595,-1.008,415872593
0.117,0.119,-1.126,-15.450,1.176,-2.000,415876604
0.120,0.123,-1.127,-14.718,2.794,-3.573,415880613
0.123,0.125,-1.130,-14.519,2.122,-4.916,415884623
0.112,0.109,-1.121,-15.023,2.962,-4.275,415888633
0.116,0.105,-1.121,-14.901,4.000,-2.595,415892643
0.115,0.096,-1.122,-15.084,4.977,-1.832,415896663
0.119,0.104,-1.122,-15.023,5.328,-1.160,415900673
0.065,0.072,-1.078,-16.794,6.672,-0.748,415904683
0.085,0.072,-1.124,-12.565,9.420,-0.519,415908694
0.099,0.107,-1.108,-12.687,11.420,-1.863,415912703
0.118,0.143,-1.123,-13.206,11.527,-1.542,415916723
0.133,0.148,-1.144,-12.763,12.244,0.962,415920733
0.156,0.147,-1.134,-12.977,12.290,1.359,415924743
0.162,0.117,-1.124,-12.260,11.969,1.099,415928753
0.154,0.091,-1.119,-12.916,11.160,0.809,415932762
0.145,0.075,-1.117,-13.221,10.794,0.580,415936779
0.152,0.081,-1.108,-13.664,9.786,-0.168,415940789
0.151,0.093,-1.101,-13.954,10.947,-3.023,415944799
0.149,0.097,-1.119,-14.290,10.305,-4.794,415948809
0.137,0.095,-1.109,-15.023,9.664,-4.519,415952819
0.142,0.095,-1.112,-15.435,9.573,-2.809,415956830
0.153,0.102,-1.107,-15.740,9.771,-2.580,415960840
0.160,0.107,-1.113,-15.618,9.573,-3.130,415964849
0.162,0.119,-1.104,-15.664,8.855,-3.908,415968859
0.163,0.112,-1.102,-15.695,8.534,-3.939,415972869
0.163,0.110,-1.102,-15.908,8.122,-3.588,415976883
0.152,0.112,-1.096,-15.695,8.061,-2.779,415980892
0.151,0.113,-1.101,-15.191,7.985,-2.153,415984903
0.147,0.110,-1.104,-15.038,7.634,-1.573,415988912
0.147,0.113,-1.094,-14.916,6.931,-1.053,415992922
0.148,0.117,-1.098,-15.298,6.443,-0.534,415996941
0.150,0.124,-1.106,-15.649,6.229,-0.733,416000953
0.147,0.125,-1.098,-15.267,6.290,-1.328,416004963
0.154,0.120,-1.091,-15.588,5.832,-1.405,416008973
0.142,0.122,-1.099,-15.893,6.046,-1.405,416012984
0.144,0.120,-1.089,-16.092,6.382,-1.481,416016993
0.142,0.124,-1.089,-16.351,6.489,-1.954,416021003
0.143,0.124,-1.087,-16.198,7.237,-1.649,416025014
0.143,0.127,-1.097,-16.275,5.969,-1.740,416029023
0.149,0.127,-1.095,-16.611,5.679,-3.038,416033033
0.151,0.133,-1.085,-17.023,6.656,-6.916,416037042
0.140,0.135,-1.088,-16.550,6.718,-8.931,416041053
0.138,0.130,-1.079,-16.931,6.718,-7.679,416045062
0.127,0.127,-1.073,-17.084,7.313,-5.756,416049072
0.132,0.118,-1.075,-17.008,8.168,-4.076,416053082
0.145,0.121,-1.081,-17.008,8.366,-3.985,416057092
0.155,0.134,-1.088,-17.176,8.183,-4.229,416061102
0.160,0.132,-1.085,-16.931,7.573,-4.061,416065112
0.165,0.134,-1.080,-17.145,6.840,-3.603,416069122
0.159,0.125,-1.084,-17.145,6.565,-3.038,416073132
0.153,0.126,-1.085,-16.748,6.443,-2.107,416077142
0.154,0.130,-1.084,-16.458,5.725,-0.885,416081153
0.160,0.135,-1.087,-16.015,5.405,-1.252,416085162
0.164,0.143,-1.096,-15.710,4.351,-1.908,416089172
0.151,0.147,-1.091,-15.466,3.588,-1.710,416093182
0.165,0.142,-1.086,-15.221,3.573,-1.679,416097192
0.150,0.135,-1.091,-14.672,3.405,-1.679,416101202
0.160,0.144,-1.089,-14.305,3.389,-1.817,416105211
0.163,0.144,-1.093,-13.847,2.534,-2.015,416109220
0.161,0.149,-1.096,-13.542,2.290,-2.076,416113229
0.157,0.147,-1.094,-13.160,1.573,-1.664,416117239
0.165,0.144,-1.100,-12.748,1.511,-1.435,416121248
0.158,0.153,-1.094,-12.458,1.282,-1.832,416125258
0.162,0.154,-1.096,-12.092,1.298,-2.321,416129269
0.175,0.161,-1.095,-11.893,0.870,-4.733,416133279
0.171,0.175,-1.094,-11.969,2.550,-8.000,416137288
0.161,0.162,-1.094,-11.038,2.046,-8.229,416141299
0.156,0.161,-1.101,-10.489,2.198,-6.122,416145308
0.161,0.160,-1.100,-10.000,3.374,-4.656,416149318
0.172,0.155,-1.103,-9.481,3.878,-4.198,416153328
0.184,0.146,-1.113,-9.206,3.740,-3.893,416157338
0.189,0.143,-1.111,-9.130,3.389,-3.802,416161348
0.195,0.139,-1.113,-9.237,3.405,-3.435,416165358
0.201,0.132,-1.100,-9.435,2.870,-3.176,416169368
0.201,0.134,-1.110,-9.832,2.397,-3.023,416173377
0.201,0.133,-1.118,-10.275,2.122,-3.634,416177387
0.199,0.133,-1.111,-10.305,1.649,-4.290,416181400
0.196,0.145,-1.122,-10.473,0.626,-5.008,416185409
0.196,0.143,-1.111,-10.580,0.046,-5.420,416189419
0.194,0.143,-1.110,-10.840,-0.534,-5.756,416193429
0.195,0.143,-1.118,-11.160,-1.237,-6.351,416197439
0.197,0.146,-1.116,-11.374,-1.939,-6.840,416201448
0.187,0.149,-1.114,-11.252,-2.656,-7.206,416205458
0.180,0.142,-1.113,-11.069,-3.405,-7.328,416209468
0.182,0.146,-1.112,-10.809,-3.679,-7.557,416213477
0.168,0.152,-1.125,-10.885,-4.321,-7.649,416217487
0.172,0.154,-1.123,-10.809,-4.443,-10.229,416221497
0.160,0.170,-1.115,-11.084,-2.931,-13.985,416225506
0.121,0.167,-1.116,-10.427,-1.847,-13.786,416229516
0.120,0.161,-1.108,-10.626,-0.794,-11.893,416233526
0.111,0.152,-1.110,-10.840,1.221,-10.137,416237536
0.116,0.140,-1.111,-10.931,3.313,-9.176,416241545
0.130,0.143,-1.106,-11.282,5.298,-8.260,416245555
0.129,0.150,-1.109,-11.557,6.473,-7.679,416249564
0.134,0.147,-1.110,-11.710,7.771,-7.603,416253573
0.139,0.146,-1.109,-12.122,8.443,-7.481,416257583
0.139,0.139,-1.098,-12.168,9.221,-6.458,416261594
0.139,0.145,-1.097,-12.779,10.092,-5.740,416265605
0.146,0.154,-1.097,-12.870,9.863,-5.084,416269614
0.144,0.160,-1.097,-12.947,9.282,-4.763,416273623
0.156,0.157,-1.104,-12.763,8.244,-5.099,416277632
0.172,0.165,-1.103,-13.069,6.947,-5.466,416281642
0.168,0.171,-1.090,-13.252,6.092,-5.740,416285652
0.168,0.169,-1.095,-13.527,4.351,-5.832,416289663
0.169,0.161,-1.092,-13.527,3.176,-6.046,416293672
0.168,0.174,-1.084,-13.710,1.557,-6.260,416297682
0.163,0.169,-1.097,-13.588,-0.534,-6.107,416301692
0.155,0.177,-1.099,-13.969,-2.198,-6.565,416305711
0.141,0.174,-1.094,-13.786,-2.351,-6.015,416309721
0.145,0.178,-1.090,-13.817,-5.267,-4.855,416313731
0.145,0.175,-1.089,-14.427,-6.458,-4.626,416317741
0.154,0.192,-1.085,-13.740,-7.695,-6.015,416321751
0.163,0.199,-1.092,-13.679,-9.359,-9.267,416325768
0.129,0.201,-1.076,-13.450,-7.573,-9.664,416329778
0.108,0.194,-1.082,-12.656,-8.595,-7.405,416333788
0.101,0.198,-1.074,-12.565,-8.107,-5.038,416337798
0.101,0.194,-1.067,-12.000,-7.725,-3.756,416341809
0.103,0.190,-1.086,-11.496,-7.008,-2.718,416345819
0.109,0.186,-1.077,-11.206,-7.191,-1.985,416349828
0.125,0.182,-1.093,-11.237,-7.374,-1.115,416353838
0.135,0.177,-1.084,-10.672,-7.282,0.260,416357847
0.138,0.177,-1.087,-10.473,-7.771,0.275,416361859
0.144,0.173,-1.103,-9.969,-8.641,-0.168,416365869
0.133,0.169,-1.100,-9.878,-9.191,-0.489,416369879
0.136,0.164,-1.097,-9.939,-9.786,-0.321,416373889
0.136,0.166,-1.097,-9.435,-9.817,-0.107,416377899
0.135,0.169,-1.093,-9.008,-10.137,-0.305,416381909
0.125,0.170,-1.102,-8.931,-10.443,-0.565,416385918
0.127,0.162,-1.103,-8.870,-9.985,-0.672,416389929
0.125,0.167,-1.093,-8.626,-10.427,-0.855,416393938
0.124,0.165,-1.101,-8.916,-9.603,-1.267,416397948
0.122,0.159,-1.106,-8.916,-9.725,-1.252,416401958
0.121,0.159,-1.097,-8.855,-9.740,-1.374,416405967
0.118,0.163,-1.110,-8.870,-9.389,-1.328,416409977
0.129,0.160,-1.097,-8.687,-8.855,-1.237,416413987
0.123,0.166,-1.110,-8.595,-8.504,-1.267,416417997
0.119,0.176,-1.107,-8.733,-7.969,-1.160,416422007
0.116,0.176,-1.106,-8.641,-7.435,-1.145,416426025
0.118,0.181,-1.109,-8.595,-6.901,-1.802,416430035
0.119,0.192,-1.101,-7.863,-6.901,-4.626,416434045
0.122,0.193,-1.108,-7.725,-7.389,-7.038,416438054
0.085,0.186,-1.084,-7.069,-3.176,-6.336,416442064
0.091,0.177,-1.108,-6.382,-3.939,-4.519,416446082
0.082,0.177,-1.106,-6.427,-2.336,-2.626,416450093
0.095,0.177,-1.109,-5.863,-1.740,-1.618,416454102
0.100,0.179,-1.112,-5.191,-1.389,-0.840,416458111
0.110,0.174,-1.114,-4.977,-1.023,-0.061,416462121
0.115,0.175,-1.111,-4.931,-1.023,0.565,416466137
0.119,0.183,-1.112,-5.115,-0.565,1.664,416470148
0.124,0.183,-1.102,-5.267,-0.244,2.626,416474157
0.122,0.184,-1.109,-5.573,-0.412,2.397,416478166
0.129,0.188,-1.104,-5.481,-0.611,2.031,416482176
0.130,0.185,-1.113,-6.061,-0.885,1.802,416486185
0.123,0.186,-1.112,-6.550,-1.145,1.847,416490194
0.126,0.177,-1.109,-6.916,-0.794,1.985,416494204
0.128,0.185,-1.109,-7.130,-0.641,1.725,416498214
0.128,0.182,-1.123,-7.389,-1.023,1.176,416502224
0.130,0.175,-1.121,-7.435,-1.359,1.130,416506233
0.123,0.180,-1.114,-7.664,-1.527,0.901,416510244
0.130,0.183,-1.117,-8.122,-2.031,1.069,416514253
