acc_x,acc_y,acc_z,gyro_x,gyro_y,gyro_z,time
0.280,0.027,-1.094,-5.420,-0.153,-0.351,0
0.280,0.026,-1.102,-5.466,-0.611,-0.641,4050
0.275,0.028,-1.094,-5.542,-0.244,-0.779,8065
0.278,0.020,-1.096,-5.710,-0.183,-0.794,12076
0.271,0.024,-1.108,-5.786,0.198,-0.718,16087
0.280,0.017,-1.113,-5.878,0.229,-0.397,20099
0.284,0.022,-1.110,-6.122,0.092,-0.473,24110
0.289,0.025,-1.109,-6.153,-0.122,-0.366,28120
0.283,0.024,-1.114,-6.427,-0.183,-0.366,32131
0.275,0.028,-1.108,-6.611,-0.519,-0.305,36142
0.282,0.022,-1.106,-6.519,-0.931,-0.122,40153
0.283,0.029,-1.113,-6.534,-1.099,-0.076,44164
0.281,0.024,-1.109,-6.198,-0.962,0.107,48175
0.279,0.019,-1.110,-6.061,-0.931,-0.153,52186
0.279,0.024,-1.104,-6.260,-1.023,-0.397,56197
0.279,0.030,-1.107,-6.366,-0.641,-0.824,60208
0.279,0.022,-1.105,-6.534,-0.626,-1.282,64219
0.272,0.029,-1.110,-6.611,-0.397,-1.450,68230
0.266,0.023,-1.099,-6.931,-0.061,-1.435,72241
0.267,0.031,-1.103,-6.718,0.534,-1.557,76252
0.258,0.040,-1.109,-6.550,0.656,-1.603,80263
0.261,0.036,-1.098,-6.168,1.038,-1.664,84274
0.266,0.039,-1.096,-6.092,1.573,-1.664,88285
0.262,0.043,-1.098,-6.076,1.924,-1.618,92296
0.261,0.039,-1.098,-6.046,1.939,-1.496,96307
0.267,0.038,-1.090,-5.847,1.649,-1.008,100319
0.267,0.040,-1.093,-5.679,1.359,-0.855,104330
0.267,0.038,-1.087,-5.313,1.176,-0.519,108342
0.265,0.039,-1.105,-5.115,0.901,-0.366,112353
0.270,0.043,-1.100,-4.931,0.672,-0.153,116364
0.264,0.047,-1.103,-4.672,0.412,0.015,120375
0.262,0.034,-1.104,-4.855,0.473,-0.183,124386
0.264,0.037,-1.104,-5.023,0.137,-0.336,128397
0.274,0.033,-1.100,-5.115,-0.153,-0.748,132409
0.274,0.034,-1.107,-5.099,-0.229,-0.840,136420
0.269,0.029,-1.105,-5.221,0.000,-1.069,140432
0.271,0.027,-1.095,-5.206,-0.061,-0.977,144443
0.266,0.024,-1.102,-5.267,-0.061,-0.702,148453
0.261,0.031,-1.105,-5.221,0.305,-0.595,152465
0.263,0.025,-1.099,-5.008,0.641,-0.504,156476
0.257,0.035,-1.106,-4.595,1.252,-0.641,160487
0.263,0.031,-1.109,-4.565,1.863,-0.595,164499
0.268,0.028,-1.096,-4.382,2.031,-0.427,168509
0.268,0.023,-1.103,-4.275,2.427,-0.550,172520
0.265,0.021,-1.104,-4.656,2.779,-0.565,176531
0.264,0.015,-1.099,-5.176,3.023,-0.565,180542
0.273,0.013,-1.109,-5.863,2.656,-0.947,184553
0.286,0.012,-1.103,-6.580,2.626,-1.053,188564
0.286,0.016,-1.113,-6.977,1.756,-1.313,192575
0.281,0.019,-1.114,-7.328,1.466,-1.527,196587
0.287,0.023,-1.112,-7.588,0.504,-1.588,200598
0.283,0.027,-1.113,-7.603,-0.351,-1.542,204609
0.277,0.028,-1.104,-7.359,-1.145,-1.237,208621
0.286,0.031,-1.098,-7.344,-1.664,-1.130,212642
0.279,0.041,-1.111,-7.267,-2.076,-1.023,216653
0.269,0.039,-1.109,-6.794,-2.046,-0.351,220664
0.264,0.037,-1.115,-6.321,-2.015,-0.122,224675
0.260,0.031,-1.099,-5.756,-1.389,0.504,228686
0.254,0.033,-1.105,-5.206,-1.160,0.733,232704
0.248,0.033,-1.107,-4.931,-0.718,0.916,236715
0.251,0.035,-1.107,-4.626,0.015,0.992,240726
0.253,0.028,-1.112,-4.733,0.916,0.885,244737
0.263,0.032,-1.102,-4.947,1.328,0.595,248744
0.265,0.022,-1.111,-5.221,1.695,0.336,252756
0.270,0.019,-1.110,-5.389,2.061,0.000,256766
0.272,0.019,-1.113,-5.710,2.214,-0.046,260777
0.267,0.024,-1.109,-6.046,2.595,0.046,264788
0.266,0.025,-1.101,-6.336,2.550,-0.229,268795
0.271,0.032,-1.112,-6.656,2.458,-0.290,272806
0.272,0.033,-1.097,-6.595,2.427,-0.351,276818
0.272,0.030,-1.112,-6.824,2.244,-0.321,280828
0.266,0.031,-1.112,-6.458,2.183,-0.412,284839
0.267,0.029,-1.103,-6.489,2.031,-0.351,288851
0.268,0.021,-1.103,-6.473,1.817,-0.198,292861
0.273,0.025,-1.110,-6.321,1.863,-0.046,296872
0.272,0.023,-1.107,-6.366,1.634,-0.137,300883
0.280,0.028,-1.113,-6.550,1.496,-0.290,304894
0.279,0.024,-1.104,-6.809,1.496,-0.229,308905
0.279,0.015,-1.117,-6.931,0.977,-0.458,312921
0.275,0.019,-1.101,-7.099,0.733,-0.489,316931
0.283,0.017,-1.102,-7.130,0.458,-0.473,320942
0.280,0.025,-1.102,-7.252,0.244,-0.672,324953
0.275,0.022,-1.093,-7.344,-0.031,-0.641,328964
0.272,0.029,-1.094,-7.664,-0.015,-0.702,332984
0.267,0.032,-1.094,-7.634,0.443,-0.702,336995
0.268,0.040,-1.088,-7.664,0.443,-0.672,341007
0.262,0.039,-1.083,-7.221,0.870,-0.565,345018
0.263,0.033,-1.081,-6.992,1.328,-0.412,349029
0.257,0.039,-1.085,-6.244,1.664,-0.275,353050
0.258,0.036,-1.083,-6.229,1.786,-0.290,357061
0.261,0.034,-1.084,-6.214,2.107,-0.107,361072
0.265,0.038,-1.088,-6.214,1.832,-0.382,365083
0.271,0.037,-1.084,-6.198,1.634,-0.244,369094
0.272,0.040,-1.082,-6.076,1.130,-0.183,373106
0.270,0.040,-1.081,-5.710,0.718,-0.229,377117
0.271,0.049,-1.080,-5.481,0.092,-0.168,381128
0.272,0.043,-1.080,-5.221,-0.504,-0.366,385139
0.269,0.044,-1.079,-4.901,-0.748,-0.397,389150
0.271,0.046,-1.078,-4.870,-0.687,-0.641,393161
0.260,0.047,-1.075,-4.427,-0.809,-0.336,397172
0.268,0.042,-1.083,-4.046,-1.237,0.092,401183
0.262,0.046,-1.086,-3.450,-1.130,0.550,405194
0.262,0.036,-1.088,-2.855,-1.084,0.870,409205
0.269,0.034,-1.078,-2.855,-0.885,1.267,413226
0.266,0.027,-1.080,-2.733,-0.931,1.221,417237
0.262,0.028,-1.086,-2.855,-0.534,1.282,421248
0.268,0.025,-1.083,-2.916,-0.443,1.191,425259
0.274,0.021,-1.094,-3.038,-0.198,1.038,429270
0.274,0.024,-1.092,-3.237,0.092,0.916,433291
0.271,0.023,-1.101,-3.328,0.397,0.641,437303
0.268,0.019,-1.092,-3.481,0.290,0.397,441314
0.270,0.026,-1.104,-3.466,0.519,0.214,445325
0.274,0.022,-1.109,-3.618,0.763,0.153,449337
0.276,0.032,-1.105,-3.771,1.130,0.107,453348
0.273,0.025,-1.105,-3.893,1.573,-0.168,457359
0.275,0.025,-1.112,-3.740,2.015,-0.214,461370
0.276,0.024,-1.116,-3.542,1.939,-0.153,465381
0.279,0.024,-1.119,-3.313,2.015,-0.214,469392
0.275,0.028,-1.120,-3.206,2.046,-0.260,473404
0.281,0.029,-1.120,-2.824,2.305,-0.092,477414
0.280,0.031,-1.134,-2.580,2.443,-0.031,481425
0.290,0.024,-1.131,-2.290,2.336,0.107,485436
0.294,0.031,-1.152,-2.107,2.244,-0.015,489447
0.300,0.030,-1.145,-1.420,1.863,0.351,493458
0.310,0.026,-1.158,-0.473,1.573,0.534,497469
0.314,0.035,-1.167,0.641,1.282,0.473,501480
0.318,0.042,-1.184,2.321,1.237,0.382,505491
0.327,0.034,-1.205,4.427,1.160,0.290,509502
0.335,0.028,-1.237,6.870,1.389,0.244,513513
0.346,0.013,-1.252,8.947,1.496,0.321,517524
0.356,0.009,-1.281,11.160,2.076,0.779,521536
0.359,-0.003,-1.308,13.466,2.534,1.267,525546
0.362,0.005,-1.341,15.725,3.130,1.603,529557
0.362,0.020,-1.350,17.389,4.397,1.725,533567
0.371,0.026,-1.378,19.313,5.847,1.466,537578
0.368,0.033,-1.398,20.992,7.298,0.687,541589
0.363,0.038,-1.435,22.565,8.977,-0.092,545600
0.367,0.041,-1.451,24.168,10.641,-0.870,549611
0.366,0.045,-1.475,25.328,11.863,-1.969,553632
0.375,0.041,-1.506,26.305,13.099,-2.962,557643
0.382,0.030,-1.523,26.412,13.786,-4.183,561654
0.393,0.018,-1.537,25.985,14.092,-5.405,565665
0.399,0.015,-1.554,24.992,13.786,-6.076,569676
0.410,0.026,-1.565,23.924,12.916,-6.504,573697
0.421,0.029,-1.579,22.611,11.802,-7.038,577709
0.419,0.034,-1.587,21.008,10.046,-7.634,581720
0.416,0.038,-1.591,18.779,7.924,-7.878,585731
0.413,0.048,-1.596,16.763,5.832,-8.366,589742
0.403,0.063,-1.600,14.595,3.191,-8.702,593752
0.404,0.069,-1.621,13.298,0.427,-9.435,597763
0.401,0.089,-1.624,12.687,-2.977,-10.382,601774
0.393,0.098,-1.633,12.427,-6.046,-10.992,605785
0.374,0.103,-1.638,12.443,-9.374,-11.802,609796
0.363,0.104,-1.641,12.611,-12.336,-12.153,613806
0.346,0.115,-1.650,12.916,-15.099,-12.366,617817
0.338,0.119,-1.648,13.023,-17.618,-12.412,621828
0.313,0.122,-1.655,13.969,-20.061,-12.061,625840
0.309,0.117,-1.658,14.427,-21.588,-11.374,629851
0.282,0.103,-1.666,14.321,-22.763,-10.275,633871
0.282,0.095,-1.661,13.878,-23.435,-9.053,637883
0.261,0.087,-1.654,13.053,-23.481,-8.122,641895
0.256,0.075,-1.646,12.061,-23.191,-7.069,645905
0.248,0.071,-1.631,11.344,-22.611,-5.878,649916
0.230,0.062,-1.605,10.412,-21.557,-4.901,653927
0.219,0.060,-1.606,9.710,-20.473,-4.229,657939
0.214,0.063,-1.569,8.733,-19.191,-3.725,661950
0.196,0.071,-1.550,7.527,-18.031,-3.725,665961
0.198,0.071,-1.532,6.931,-15.420,-4.076,669972
0.183,0.058,-1.521,5.802,-12.137,-4.153,673983
0.210,0.055,-1.518,4.641,-9.939,-4.061,677994
0.228,0.051,-1.503,2.931,-6.748,-6.809,682005
0.188,0.016,-1.485,0.855,-2.275,-4.107,686016
0.209,-0.002,-1.478,-1.405,2.168,-4.275,690027
0.226,0.005,-1.481,-4.000,4.458,-7.847,694038
0.243,0.010,-1.472,-6.153,5.084,-10.962,698049
0.254,0.005,-1.470,-8.076,5.282,-12.244,702060
0.281,-0.004,-1.472,-9.618,5.985,-12.641,706071
0.310,-0.020,-1.453,-10.672,6.168,-12.748,710082
0.334,-0.027,-1.438,-11.878,6.244,-13.878,714093
0.337,-0.026,-1.426,-12.702,5.221,-14.626,718104
0.334,-0.015,-1.403,-13.313,5.344,-15.527,722115
0.329,-0.012,-1.403,-13.649,4.504,-15.969,726126
0.350,-0.010,-1.391,-14.290,3.405,-17.221,730137
0.348,-0.020,-1.373,-14.489,1.847,-17.954,734149
0.343,-0.022,-1.353,-14.107,0.290,-17.786,738157
0.344,-0.018,-1.330,-14.015,-1.069,-17.542,742168
0.342,-0.019,-1.308,-13.725,-2.153,-17.328,746179
0.348,-0.014,-1.284,-13.603,-2.763,-17.359,750190
0.350,-0.003,-1.267,-13.588,-3.527,-17.740,754201
0.347,-0.003,-1.264,-13.389,-3.924,-18.489,758215
0.349,-0.010,-1.255,-13.679,-4.260,-19.664,762226
0.350,-0.004,-1.247,-14.153,-4.779,-21.008,766237
0.343,-0.005,-1.236,-15.038,-5.160,-22.321,770248
0.342,-0.009,-1.230,-16.122,-5.130,-23.634,774259
0.332,-0.010,-1.210,-17.069,-5.313,-25.160,778271
0.324,-0.003,-1.209,-17.740,-5.237,-26.183,782282
0.320,-0.003,-1.188,-18.244,-5.237,-26.595,786293
0.318,-0.001,-1.193,-19.481,-5.802,-26.534,790304
0.316,0.000,-1.177,-19.924,-6.092,-26.046,794315
0.302,0.001,-1.159,-20.061,-5.939,-25.221,798327
0.278,0.007,-1.151,-20.137,-1.267,-24.962,802338
0.239,0.030,-1.108,-17.786,6.947,-20.977,806349
0.194,0.008,-1.116,-16.397,5.344,-18.107,810360
0.281,0.021,-1.109,-15.466,6.443,-21.023,814371
0.237,-0.028,-1.113,-13.160,7.252,-14.504,818381
0.344,0.018,-1.117,-12.672,8.840,-17.863,822393
0.383,0.040,-1.131,-8.870,-1.985,-21.802,826403
0.366,-0.006,-1.145,-7.344,-5.832,-14.702,830414
0.405,-0.042,-1.119,-5.679,-3.267,-7.634,834425
0.422,-0.034,-1.110,-2.947,-5.252,-6.382,838436
0.382,-0.033,-1.106,-0.244,-9.435,-6.550,842447
0.351,-0.021,-1.122,1.863,-14.382,-7.099,846458
0.348,-0.009,-1.124,4.275,-20.962,-7.008,850469
0.361,-0.012,-1.130,5.450,-26.779,-5.557,854480
0.382,-0.023,-1.121,6.260,-31.160,-3.786,858491
0.391,-0.027,-1.113,6.977,-32.931,-3.618,862502
0.350,-0.025,-1.085,8.183,-30.687,-2.977,866514
0.289,-0.013,-1.092,9.618,-29.832,-1.618,870525
0.240,-0.016,-1.092,10.183,-30.427,-1.328,874536
0.186,-0.017,-1.079,11.084,-26.519,-0.565,878544
0.169,-0.007,-1.077,11.374,-24.382,-1.115,882556
0.211,0.023,-1.078,12.107,-23.664,-7.023,886566
0.197,0.019,-1.081,12.153,-22.244,-7.863,890577
0.194,-0.003,-1.084,10.824,-18.458,-5.817,894588
0.216,-0.010,-1.075,9.298,-14.321,-6.229,898600
0.184,-0.014,-1.069,8.214,-10.198,-6.397,902611
0.170,-0.010,-1.078,6.962,-6.779,-6.824,906623
0.166,0.006,-1.070,6.107,-5.099,-7.573,910634
0.167,0.003,-1.065,5.160,-3.893,-7.130,914645
0.187,0.005,-1.065,4.305,-3.740,-6.718,918657
0.199,0.008,-1.062,4.244,-2.214,-6.809,922678
0.222,0.018,-1.068,4.473,-2.260,-6.473,926689
0.222,0.021,-1.075,5.496,-2.473,-5.893,930700
0.219,0.026,-1.074,6.656,-3.374,-5.008,934711
0.208,0.024,-1.072,7.985,-2.962,-4.046,938723
0.183,0.015,-1.067,9.618,-2.977,-2.214,942738
0.180,0.019,-1.061,11.771,-3.069,-2.122,946749
0.177,0.019,-1.068,14.321,-3.359,-1.969,950760
0.163,0.027,-1.049,17.435,-2.504,-0.260,954771
0.153,0.038,-1.074,20.672,-1.420,1.252,958782
0.158,0.055,-1.064,23.588,-0.198,1.985,962794
0.162,0.053,-1.073,25.954,0.855,2.763,966805
0.168,0.049,-1.076,28.092,1.710,3.771,970817
0.170,0.036,-1.074,29.924,2.840,4.595,974828
0.175,0.024,-1.073,31.191,3.176,5.191,978839
0.176,0.008,-1.091,32.153,3.664,6.153,982849
0.169,-0.005,-1.087,32.626,3.679,6.992,986860
0.186,-0.024,-1.082,32.473,4.122,7.710,990871
0.186,-0.025,-1.087,31.878,4.733,7.832,994882
0.185,-0.051,-1.083,30.947,5.221,8.397,998893
0.188,-0.068,-1.081,29.634,5.389,9.313,1002903
0.199,-0.074,-1.084,28.595,5.649,10.626,1006914
0.211,-0.079,-1.069,27.466,5.084,12.122,1010925
0.215,-0.070,-1.073,25.939,4.382,13.618,1014936
0.213,-0.059,-1.081,24.519,3.573,14.931,1018947
0.214,-0.064,-1.061,22.794,2.840,15.969,1022967
0.212,-0.066,-1.058,21.710,2.244,16.763,1026978
0.206,-0.078,-1.052,20.382,2.397,17.328,1030990
0.209,-0.081,-1.054,19.389,2.763,17.878,1035000
0.201,-0.084,-1.040,18.519,3.099,18.702,1039011
0.216,-0.097,-1.034,17.420,2.687,19.679,1043032
0.234,-0.096,-1.041,16.183,1.939,20.305,1047043
0.246,-0.099,-1.035,14.916,0.427,20.626,1051054
0.263,-0.096,-1.045,14.305,-1.679,20.748,1055065
0.275,-0.103,-1.037,13.359,-4.840,19.832,1059076
0.283,-0.119,-1.029,12.031,-8.595,18.901,1063088
0.290,-0.125,-1.028,10.473,-11.802,17.740,1067099
0.306,-0.124,-1.027,9.053,-14.992,15.863,1071110
0.304,-0.121,-1.022,7.511,-17.557,13.481,1075121
0.289,-0.112,-1.023,6.366,-18.962,10.763,1079132
0.264,-0.098,-1.020,5.924,-18.962,7.710,1083144
0.226,-0.094,-1.014,5.282,-17.710,4.824,1087155
0.189,-0.092,-1.012,4.947,-15.130,2.550,1091166
0.159,-0.095,-1.018,4.809,-10.809,0.916,1095177
0.131,-0.093,-1.008,5.557,-5.267,-0.382,1099188
0.110,-0.084,-1.000,6.382,1.008,-0.443,1103209
0.095,-0.083,-0.992,7.145,7.374,-0.275,1107220
0.090,-0.098,-0.984,8.076,13.832,0.244,1111232
0.091,-0.109,-0.978,8.962,19.969,1.160,1115243
0.090,-0.115,-0.986,10.321,26.122,2.702,1119254
0.106,-0.122,-0.981,11.374,31.328,4.641,1123275
0.131,-0.136,-0.983,11.802,34.885,5.817,1127286
0.152,-0.158,-0.987,11.099,37.282,6.885,1131297
0.176,-0.177,-0.987,10.382,37.374,8.473,1135308
0.203,-0.198,-0.980,9.298,35.420,10.366,1139319
0.260,-0.204,-0.982,7.954,32.382,12.168,1143337
0.306,-0.220,-0.990,5.924,27.664,13.298,1147349
0.345,-0.213,-0.991,3.710,21.527,13.328,1151360
0.370,-0.200,-0.993,1.542,14.076,12.321,1155372
0.389,-0.192,-1.000,-0.351,7.115,10.153,1159383
0.377,-0.176,-0.998,-1.511,0.321,7.954,1163394
0.354,-0.160,-0.995,-2.244,-4.748,5.695,1167405
0.325,-0.166,-1.003,-3.038,-8.504,3.160,1171416
0.291,-0.173,-0.990,-4.672,-10.473,1.328,1175427
0.266,-0.182,-0.974,-6.229,-10.443,-0.214,1179438
0.224,-0.190,-0.971,-6.687,-8.305,-0.916,1183449
0.188,-0.186,-0.969,-6.290,-4.611,-1.206,1187460
0.150,-0.188,-0.977,-5.725,0.656,-1.130,1191471
0.117,-0.195,-0.980,-4.870,6.443,-0.076,1195482
0.086,-0.199,-0.985,-3.664,12.916,1.603,1199493
0.086,-0.202,-0.988,-2.672,18.885,4.168,1203503
0.107,-0.206,-0.992,-1.374,24.321,8.076,1207514
0.131,-0.193,-0.979,0.794,28.489,11.588,1211525
0.142,-0.192,-0.982,3.038,31.328,15.359,1215536
0.149,-0.188,-0.973,5.237,33.252,18.412,1219548
0.174,-0.187,-0.971,6.473,33.573,21.466,1223563
0.203,-0.200,-0.982,5.832,32.809,24.153,1227574
0.243,-0.204,-0.977,4.153,31.053,25.725,1231585
0.267,-0.200,-0.988,2.290,28.214,26.336,1235596
0.288,-0.201,-0.983,0.153,23.954,25.725,1239607
0.310,-0.209,-0.977,-2.015,19.557,24.229,1243627
0.318,-0.197,-0.983,-4.626,14.947,23.282,1247639
0.332,-0.199,-0.981,-6.962,10.580,22.015,1251650
0.341,-0.206,-0.961,-9.603,6.275,20.977,1255660
0.356,-0.205,-0.938,-10.885,2.275,19.557,1259671
0.351,-0.198,-0.931,-11.817,-0.260,17.924,1263692
0.336,-0.192,-0.924,-12.977,-2.748,16.183,1267703
0.317,-0.178,-0.941,-12.733,-4.214,14.718,1271714
0.285,-0.169,-0.948,-11.924,-4.962,12.779,1275725
0.268,-0.162,-0.955,-11.466,-5.557,11.038,1279736
0.255,-0.165,-0.948,-11.053,-5.710,9.053,1283748
0.260,-0.174,-0.951,-11.084,-5.527,7.435,1287759
0.256,-0.177,-0.928,-10.550,-4.992,6.107,1291769
0.254,-0.178,-0.916,-9.313,-4.580,4.809,1295780
0.249,-0.169,-0.915,-8.870,-3.954,3.695,1299791
0.241,-0.172,-0.918,-8.046,-3.160,2.809,1303802
0.226,-0.180,-0.911,-8.565,-2.015,1.817,1307812
0.205,-0.183,-0.894,-8.275,-0.153,1.359,1311823
0.179,-0.174,-0.888,-7.725,2.656,2.534,1315834
0.167,-0.175,-0.889,-6.641,5.832,5.252,1319845
0.169,-0.172,-0.884,-6.015,8.611,8.947,1323865
0.184,-0.190,-0.889,-6.534,10.931,12.870,1327877
0.187,-0.201,-0.900,-6.443,12.824,17.023,1331888
0.197,-0.202,-0.890,-6.611,13.160,21.008,1335899
0.208,-0.201,-0.906,-6.427,13.191,24.427,1339913
0.215,-0.182,-0.915,-5.542,12.702,26.656,1343924
0.210,-0.157,-0.924,-5.099,11.435,27.817,1347935
0.218,-0.145,-0.939,-5.374,9.618,27.786,1351947
0.228,-0.143,-0.952,-5.481,7.695,26.885,1355957
0.224,-0.137,-0.959,-5.710,5.344,25.664,1359968
0.212,-0.119,-0.963,-5.634,3.038,23.634,1363979
0.192,-0.117,-0.971,-6.000,1.176,21.496,1367991
0.172,-0.113,-0.957,-6.687,0.595,18.885,1372002
0.170,-0.115,-0.963,-8.153,0.382,16.580,1376014
0.159,-0.125,-0.964,-9.863,0.931,13.954,1380025
0.147,-0.129,-0.947,-10.931,2.244,11.817,1384036
0.133,-0.126,-0.925,-11.908,4.366,9.817,1388048
0.130,-0.123,-0.914,-11.985,7.282,7.893,1392059
0.116,-0.113,-0.902,-10.870,10.183,6.061,1396071
0.108,-0.101,-0.883,-8.580,12.962,4.504,1400082
0.130,-0.102,-0.874,-6.397,16.504,3.328,1404093
0.125,-0.107,-0.892,-3.740,20.656,2.992,1408104
0.125,-0.122,-0.902,-2.870,23.817,3.359,1412115
0.146,-0.139,-0.909,-2.595,26.244,3.939,1416126
0.169,-0.157,-0.903,-1.679,27.603,4.397,1420137
0.208,-0.172,-0.912,-1.374,28.290,5.282,1424149
0.238,-0.189,-0.925,-1.573,27.206,6.504,1428157
0.268,-0.185,-0.916,-1.115,24.885,7.847,1432168
0.280,-0.172,-0.924,-0.336,22.031,8.214,1436179
0.253,-0.154,-0.936,0.916,19.405,8.336,1440190
0.231,-0.122,-0.946,2.260,16.870,7.450,1444201
0.207,-0.106,-0.943,3.252,15.298,5.924,1448215
0.180,-0.093,-0.928,4.336,14.076,3.542,1452226
0.166,-0.083,-0.919,4.702,14.336,1.344,1456237
0.143,-0.098,-0.909,4.183,15.511,-0.366,1460248
0.130,-0.111,-0.896,2.611,17.420,-2.092,1464259
0.121,-0.134,-0.885,0.687,20.626,-3.313,1468271
0.101,-0.145,-0.856,-1.939,24.672,-3.359,1472282
0.101,-0.151,-0.838,-4.489,28.794,-1.771,1476293
0.132,-0.168,-0.813,-6.427,32.489,0.336,1480304
0.172,-0.168,-0.806,-7.237,34.794,3.817,1484315
0.207,-0.157,-0.787,-5.985,36.656,8.229,1488327
0.250,-0.146,-0.789,-3.878,37.893,13.954,1492338
0.294,-0.149,-0.839,-2.427,38.382,19.847,1496349
0.332,-0.165,-0.887,-2.763,37.023,25.389,1500360
0.377,-0.172,-0.903,-4.031,33.573,29.786,1504371
0.429,-0.168,-0.903,-6.137,28.031,33.756,1508381
0.456,-0.159,-0.911,-8.855,22.626,37.237,1512393
0.467,-0.135,-0.907,-10.260,16.046,40.107,1516403
0.458,-0.117,-0.914,-11.313,9.725,42.290,1520414
0.432,-0.085,-0.915,-11.634,4.015,43.756,1524425
0.407,-0.071,-0.923,-11.389,-1.069,44.718,1528436
0.390,-0.067,-0.936,-11.832,-4.305,45.008,1532447
0.382,-0.057,-0.931,-12.489,-6.656,44.641,1536458
0.365,-0.057,-0.915,-13.802,-8.443,43.344,1540469
0.353,-0.054,-0.915,-14.061,-9.145,42.336,1544480
0.334,-0.056,-0.896,-13.649,-9.466,41.298,1548491
0.331,-0.073,-0.897,-12.870,-9.359,40.550,1552502
0.332,-0.077,-0.893,-12.015,-8.855,40.168,1556514
0.338,-0.080,-0.893,-10.931,-8.534,39.344,1560525
0.357,-0.071,-0.895,-10.092,-8.321,38.275,1564536
0.365,-0.069,-0.915,-8.611,-8.580,36.763,1568544
0.377,-0.061,-0.912,-7.191,-8.885,33.908,1572556
0.370,-0.052,-0.928,-6.229,-8.763,30.275,1576566
0.369,-0.039,-0.937,-5.221,-9.908,25.160,1580577
0.360,-0.041,-0.937,-4.443,-10.427,19.817,1584588
0.333,-0.031,-0.947,-3.985,-9.420,14.855,1588600
0.309,-0.032,-0.958,-3.481,-7.191,10.107,1592611
0.288,-0.036,-0.964,-2.962,-4.321,6.198,1596623
0.273,-0.030,-0.975,-2.687,-1.893,2.794,1600634
0.272,-0.016,-0.987,-2.504,0.687,-1.496,1604645
0.264,-0.001,-0.989,-1.969,3.176,-6.260,1608657
0.254,0.010,-0.995,-0.656,6.260,-10.580,1612678
0.252,0.020,-1.000,0.489,8.824,-14.183,1616689
0.248,0.009,-1.001,1.603,11.298,-17.328,1620700
0.254,0.005,-1.001,2.137,12.901,-20.229,1624711
0.264,0.001,-1.007,1.832,14.656,-22.641,1628723
0.269,-0.004,-0.991,1.374,15.221,-24.779,1632738
0.269,-0.018,-0.980,0.855,14.901,-27.206,1636749
0.263,-0.015,-0.982,0.260,14.809,-29.359,1640760
0.267,-0.011,-0.965,-0.672,14.550,-30.947,1644771
0.263,-0.004,-0.956,-1.282,14.153,-32.550,1648782
0.265,-0.012,-0.958,-1.863,13.847,-33.878,1652794
0.270,-0.001,-0.926,-3.710,12.992,-35.176,1656805
0.256,-0.003,-0.916,-3.267,12.321,-36.504,1660817
0.249,-0.010,-0.918,-3.420,11.496,-37.038,1664828
0.252,-0.026,-0.924,-3.344,11.252,-37.298,1668839
0.249,-0.025,-0.938,-3.511,10.809,-37.191,1672849
0.257,-0.035,-0.948,-3.664,10.107,-37.466,1676860
0.257,-0.029,-0.957,-2.595,9.481,-37.359,1680871
0.247,-0.009,-0.967,-1.267,9.084,-36.779,1684882
0.243,-0.008,-0.981,1.115,8.473,-35.405,1688893
0.238,-0.004,-0.989,2.916,8.321,-33.573,1692903
0.250,-0.001,-1.008,4.794,7.695,-31.679,1696914
0.241,0.000,-1.018,6.931,7.084,-29.710,1700925
0.231,-0.008,-1.025,8.855,6.901,-27.817,1704937
0.218,-0.025,-1.040,10.015,6.183,-25.771,1708948
0.218,-0.033,-1.048,10.122,5.771,-23.634,1712967
0.218,-0.053,-1.041,9.954,5.695,-21.634,1716978
0.209,-0.056,-1.054,10.092,5.557,-19.954,1720989
0.201,-0.069,-1.058,9.969,5.389,-18.977,1725000
0.185,-0.079,-1.064,9.634,5.557,-17.649,1729011
0.172,-0.088,-1.063,9.237,6.244,-16.122,1733032
0.162,-0.101,-1.073,9.008,6.763,-14.611,1737042
0.151,-0.114,-1.073,8.550,7.710,-13.053,1741053
0.160,-0.133,-1.083,7.954,7.954,-11.298,1745065
0.167,-0.124,-1.076,7.008,8.107,-9.679,1749076
0.176,-0.135,-1.080,6.015,7.893,-8.489,1753087
0.181,-0.145,-1.079,5.145,7.252,-7.206,1757098
0.191,-0.150,-1.077,4.321,6.580,-6.061,1761109
0.206,-0.149,-1.092,3.695,5.603,-4.595,1765120
0.223,-0.135,-1.098,3.298,4.702,-3.176,1769131
0.235,-0.130,-1.103,3.359,3.756,-1.725,1773143
0.253,-0.129,-1.095,3.481,2.351,-0.427,1777154
0.260,-0.124,-1.101,3.542,0.641,0.718,1781165
0.269,-0.115,-1.100,4.214,-0.947,1.466,1785176
0.251,-0.126,-1.106,4.916,-2.168,1.969,1789187
0.246,-0.129,-1.116,5.496,-3.130,2.366,1793207
0.239,-0.143,-1.121,5.756,-3.420,2.779,1797218
0.230,-0.151,-1.127,5.893,-2.901,2.977,1801229
0.225,-0.166,-1.123,5.450,-2.397,3.313,1805240
0.219,-0.171,-1.135,5.420,-1.710,3.802,1809251
0.212,-0.174,-1.125,5.008,-0.840,4.336,1813271
0.208,-0.191,-1.132,4.718,-0.534,4.519,1817282
0.217,-0.192,-1.128,4.137,0.183,5.038,1821293
0.218,-0.197,-1.131,3.634,1.053,5.344,1825304
0.214,-0.193,-1.128,3.145,1.939,5.542,1829315
0.214,-0.205,-1.130,2.336,2.473,5.939,1833333
0.207,-0.203,-1.129,1.267,3.145,6.031,1837345
0.209,-0.200,-1.120,0.351,3.679,6.031,1841355
0.208,-0.204,-1.134,-0.626,4.076,5.649,1845366
0.217,-0.199,-1.136,-1.786,4.977,5.802,1849377
0.219,-0.197,-1.136,-2.321,5.588,6.061,1853389
0.228,-0.196,-1.144,-3.221,5.893,6.137,1857399
0.242,-0.193,-1.136,-4.168,6.092,6.092,1861410
0.266,-0.191,-1.136,-5.252,5.924,5.939,1865421
0.278,-0.186,-1.140,-6.107,5.466,5.573,1869432
0.281,-0.194,-1.129,-7.145,4.733,4.901,1873443
0.293,-0.189,-1.123,-8.229,4.046,4.275,1877454
0.301,-0.202,-1.117,-8.977,3.023,3.374,1881465
0.298,-0.208,-1.121,-9.206,2.504,2.947,1885476
0.302,-0.204,-1.113,-9.618,2.153,2.183,1889487
0.305,-0.206,-1.113,-9.725,2.107,2.107,1893497
0.300,-0.199,-1.112,-9.679,1.817,1.359,1897508
0.302,-0.192,-1.098,-9.160,2.015,0.427,1901519
0.288,-0.186,-1.100,-8.824,2.214,-0.198,1905530
0.280,-0.185,-1.099,-8.229,2.977,-0.931,1909541
0.289,-0.182,-1.094,-7.802,3.802,-0.809,1913553
0.289,-0.177,-1.096,-7.817,4.137,-1.038,1917564
0.289,-0.177,-1.085,-8.107,4.595,-1.145,1921575
0.289,-0.180,-1.087,-8.153,5.008,-1.115,1925586
0.286,-0.177,-1.087,-8.656,4.641,-1.282,1929597
0.275,-0.184,-1.093,-8.733,5.115,-1.328,1933617
0.269,-0.182,-1.095,-9.374,5.206,-1.466,1937627
0.277,-0.180,-1.101,-9.771,5.206,-1.313,1941638
0.278,-0.182,-1.103,-10.092,5.053,-0.947,1945650
0.288,-0.178,-1.094,-10.168,5.053,-0.244,1949661
0.298,-0.177,-1.094,-10.550,4.412,0.275,1953681
0.303,-0.168,-1.090,-10.855,3.420,1.328,1957692
0.313,-0.169,-1.085,-10.916,2.794,2.244,1961704
0.318,-0.155,-1.092,-11.130,1.542,3.069,1965715
0.319,-0.143,-1.088,-11.374,-0.046,4.015,1969726
0.324,-0.139,-1.080,-11.069,-1.084,4.626,1973740
0.327,-0.138,-1.078,-10.779,-2.611,4.840,1977750
0.324,-0.134,-1.071,-10.870,-3.221,5.130,1981761
0.326,-0.134,-1.078,-10.611,-3.664,4.962,1985772
0.317,-0.132,-1.076,-9.939,-3.802,4.504,1989783
0.309,-0.139,-1.074,-9.435,-3.267,4.137,1993795
0.313,-0.144,-1.074,-8.656,-2.947,3.939,1997806
0.317,-0.134,-1.073,-8.275,-2.336,3.939,2001818
