acc_x,acc_y,acc_z,gyro_x,gyro_y,gyro_z,time
0.174,-0.223,-1.127,-2.351,2.275,0.489,0
0.178,-0.219,-1.113,-2.000,2.519,0.901,4053
0.181,-0.227,-1.108,-1.649,2.702,0.809,8066
0.174,-0.237,-1.112,-1.160,2.611,1.344,12077
0.178,-0.234,-1.117,-1.313,2.305,1.618,16088
0.180,-0.233,-1.114,-1.496,2.168,1.817,20099
0.175,-0.242,-1.108,-1.802,1.954,1.878,24110
0.170,-0.236,-1.112,-1.893,2.168,1.924,28120
0.175,-0.229,-1.118,-1.908,2.260,1.969,32132
0.172,-0.226,-1.112,-1.771,2.687,1.832,36142
0.177,-0.223,-1.103,-1.649,3.115,2.153,40153
0.175,-0.219,-1.109,-1.160,3.695,2.092,44164
0.170,-0.215,-1.109,-0.656,4.031,2.122,48173
0.178,-0.222,-1.106,-0.275,4.290,2.260,52184
0.177,-0.225,-1.104,0.015,4.473,1.924,56195
0.181,-0.229,-1.106,-0.015,4.153,2.198,60206
0.185,-0.231,-1.104,-0.137,3.893,2.229,64217
0.186,-0.235,-1.113,-0.580,3.481,2.153,68229
0.188,-0.240,-1.108,-0.962,2.855,2.153,72240
0.190,-0.244,-1.111,-1.618,1.878,1.802,76251
0.197,-0.238,-1.107,-1.863,1.191,1.420,80262
0.189,-0.237,-1.111,-2.137,0.763,0.870,84273
0.194,-0.231,-1.109,-2.397,0.351,0.840,88285
0.189,-0.231,-1.117,-2.412,0.046,0.504,92296
0.190,-0.230,-1.123,-2.443,-0.214,-0.031,96308
0.198,-0.229,-1.116,-2.321,-0.611,-0.382,100319
0.185,-0.228,-1.117,-2.244,-0.702,-0.534,104330
0.189,-0.231,-1.110,-2.015,-0.611,-0.702,108342
0.178,-0.229,-1.104,-1.878,-0.366,-0.641,112353
0.182,-0.232,-1.112,-1.847,-0.198,-0.626,116364
0.179,-0.236,-1.114,-1.908,0.107,-0.626,120375
0.188,-0.237,-1.122,-2.321,0.366,-0.550,124386
0.177,-0.238,-1.111,-2.473,0.626,-0.397,128396
0.171,-0.234,-1.116,-2.595,0.885,-0.168,132407
0.169,-0.230,-1.117,-2.443,1.267,-0.015,136418
0.173,-0.226,-1.113,-1.969,1.664,0.214,140429
0.179,-0.225,-1.113,-1.634,2.122,0.229,144440
0.171,-0.224,-1.110,-1.145,2.550,0.519,148451
0.181,-0.221,-1.113,-0.656,3.038,0.534,152461
0.175,-0.230,-1.111,-0.687,3.374,0.824,156472
0.184,-0.236,-1.110,-0.702,3.420,0.870,160484
0.185,-0.236,-1.113,-0.626,3.389,0.870,164495
0.184,-0.240,-1.119,-1.053,3.038,0.656,168506
0.189,-0.245,-1.125,-1.588,2.855,0.672,172517
0.185,-0.241,-1.129,-1.725,2.473,0.595,176528
0.188,-0.238,-1.126,-2.336,2.458,0.153,180539
0.185,-0.240,-1.126,-2.321,2.366,-0.015,184550
0.185,-0.238,-1.115,-2.489,2.137,-0.198,188561
0.188,-0.237,-1.111,-2.718,2.183,-0.366,192572
0.186,-0.237,-1.106,-2.885,2.061,-0.687,196584
0.181,-0.233,-1.116,-2.672,2.092,-0.687,200595
0.185,-0.237,-1.118,-2.779,1.924,-0.550,204606
0.185,-0.237,-1.119,-2.794,1.863,-0.748,208618
0.188,-0.236,-1.115,-2.595,1.771,-0.870,212630
0.181,-0.240,-1.110,-2.748,2.031,-0.870,216641
0.178,-0.239,-1.105,-2.458,2.031,-0.824,220653
0.186,-0.242,-1.111,-2.580,2.061,-0.519,224664
0.176,-0.237,-1.115,-2.718,2.092,-0.290,228675
0.179,-0.243,-1.122,-2.947,2.137,-0.275,232693
0.179,-0.240,-1.129,-2.977,2.260,-0.107,236704
0.177,-0.243,-1.114,-2.901,2.702,-0.443,240715
0.179,-0.238,-1.118,-2.855,2.748,-0.718,244726
0.189,-0.241,-1.115,-2.840,3.130,-0.962,248737
0.183,-0.237,-1.116,-2.718,3.084,-0.992,252748
0.187,-0.236,-1.116,-2.611,3.176,-1.008,256759
0.183,-0.236,-1.114,-2.595,3.176,-1.099,260770
0.185,-0.239,-1.114,-2.534,2.901,-0.901,264781
0.178,-0.240,-1.112,-2.382,2.824,-1.160,268794
0.179,-0.242,-1.109,-2.489,2.870,-0.763,272805
0.175,-0.237,-1.112,-2.290,2.626,-0.824,276816
0.167,-0.242,-1.115,-2.611,2.824,-0.779,280827
0.176,-0.239,-1.105,-2.580,3.023,-0.779,284838
0.184,-0.238,-1.112,-2.519,3.008,-0.687,288849
0.177,-0.241,-1.113,-2.580,2.992,-0.550,292859
0.185,-0.237,-1.110,-2.595,2.992,-0.656,296870
0.175,-0.238,-1.112,-2.550,3.115,-0.504,300881
0.184,-0.235,-1.110,-2.519,2.992,-0.443,304892
0.181,-0.238,-1.109,-2.351,2.855,-0.611,308904
0.184,-0.236,-1.106,-2.198,2.840,-0.794,312915
0.182,-0.240,-1.110,-2.061,2.595,-0.901,316927
0.178,-0.236,-1.104,-1.863,2.443,-0.840,320938
0.181,-0.239,-1.116,-1.740,2.351,-0.931,324950
0.185,-0.242,-1.108,-1.588,2.397,-1.008,328961
0.182,-0.242,-1.104,-1.496,2.321,-0.931,332980
0.184,-0.238,-1.099,-1.313,2.473,-1.008,336991
0.178,-0.230,-1.097,-0.992,2.305,-0.763,341002
0.183,-0.235,-1.093,-0.748,2.336,-0.962,345013
0.174,-0.234,-1.095,-0.305,2.366,-0.901,349024
0.178,-0.238,-1.095,-0.137,2.458,-0.779,353045
0.170,-0.233,-1.093,0.214,2.366,-0.947,357056
0.173,-0.232,-1.105,0.427,2.198,-0.550,361067
0.177,-0.234,-1.105,0.366,1.985,-0.321,365078
0.181,-0.242,-1.100,0.489,1.832,-0.366,369089
0.182,-0.249,-1.109,0.366,1.542,-0.321,373102
0.175,-0.248,-1.107,0.214,1.374,-0.153,377114
0.174,-0.255,-1.113,-0.137,1.176,-0.290,381124
0.180,-0.254,-1.110,-0.244,1.344,-0.290,385135
0.176,-0.260,-1.118,-0.702,1.374,-0.366,389146
0.184,-0.252,-1.117,-0.947,1.344,-0.397,393159
0.180,-0.252,-1.117,-0.916,1.420,-0.519,397170
0.185,-0.255,-1.122,-1.008,1.328,-0.580,401181
0.184,-0.250,-1.112,-0.916,1.435,-0.931,405192
0.186,-0.247,-1.111,-1.069,1.450,-0.916,409203
0.186,-0.246,-1.114,-0.977,1.328,-0.992,413224
0.188,-0.244,-1.126,-0.870,1.206,-1.130,417235
0.190,-0.245,-1.115,-1.176,1.145,-1.313,421247
0.182,-0.247,-1.115,-0.885,0.947,-1.313,425258
0.184,-0.249,-1.117,-0.641,0.962,-1.221,429269
0.181,-0.240,-1.116,-0.550,0.718,-1.313,433290
0.184,-0.246,-1.123,-0.275,0.595,-1.237,437302
0.177,-0.240,-1.124,-0.153,0.641,-1.084,441313
0.177,-0.242,-1.131,0.015,0.947,-1.053,445324
0.175,-0.245,-1.113,-0.015,0.840,-1.115,449336
0.179,-0.239,-1.119,0.275,0.947,-0.977,453347
0.170,-0.243,-1.125,0.214,1.267,-0.931,457358
0.179,-0.236,-1.120,0.595,1.237,-0.794,461369
0.180,-0.246,-1.124,0.351,1.145,-0.687,465380
0.181,-0.240,-1.124,0.351,1.176,-0.611,469391
0.182,-0.239,-1.130,0.321,0.962,-0.519,473402
0.187,-0.238,-1.131,0.351,0.687,-0.641,477414
0.184,-0.245,-1.129,0.458,-0.122,-0.733,481424
0.189,-0.243,-1.127,0.489,-0.443,-0.489,485435
0.183,-0.243,-1.126,0.595,-0.977,-0.473,489446
0.187,-0.237,-1.128,0.656,-1.389,-0.412,493458
0.180,-0.241,-1.137,0.672,-1.969,-0.229,497468
0.186,-0.242,-1.139,0.656,-2.183,-0.076,501479
0.182,-0.235,-1.139,1.145,-2.244,0.137,505490
0.186,-0.228,-1.151,1.603,-2.153,0.153,509501
0.176,-0.225,-1.159,2.275,-2.137,0.305,513511
0.181,-0.222,-1.159,3.008,-2.046,0.534,517522
0.185,-0.221,-1.173,3.817,-1.817,0.656,521533
0.187,-0.223,-1.177,4.351,-1.924,1.191,525544
0.187,-0.220,-1.187,5.115,-2.076,1.802,529555
0.196,-0.222,-1.209,5.695,-2.412,2.397,533566
0.186,-0.225,-1.217,6.198,-2.580,2.779,537577
0.193,-0.220,-1.225,6.748,-2.809,3.573,541588
0.189,-0.218,-1.236,7.008,-2.733,4.305,545599
0.185,-0.225,-1.241,7.420,-2.534,5.237,549610
0.189,-0.221,-1.257,7.893,-2.122,6.015,553630
0.192,-0.226,-1.265,8.214,-1.542,7.084,557641
0.196,-0.230,-1.269,8.275,-0.977,8.244,561652
0.209,-0.230,-1.279,8.214,-0.565,8.962,565663
0.217,-0.231,-1.278,8.076,-0.061,9.588,569674
0.221,-0.232,-1.280,7.985,0.351,10.229,573694
0.223,-0.229,-1.285,7.740,0.244,10.916,577705
0.230,-0.231,-1.291,7.573,0.611,11.176,581716
0.242,-0.216,-1.300,7.389,0.992,11.206,585727
0.238,-0.212,-1.315,7.206,1.023,11.344,589738
0.260,-0.209,-1.314,7.420,0.794,11.008,593750
0.278,-0.205,-1.313,7.603,0.092,10.382,597760
0.286,-0.191,-1.325,8.076,-0.611,9.511,601772
0.295,-0.185,-1.342,8.885,-1.863,8.748,605782
0.301,-0.182,-1.367,9.542,-3.313,7.740,609793
0.306,-0.184,-1.372,9.725,-4.809,6.550,613805
0.301,-0.183,-1.392,9.847,-6.183,5.237,617816
0.301,-0.188,-1.403,9.908,-7.298,3.573,621827
0.286,-0.185,-1.426,10.000,-8.168,2.031,625839
0.283,-0.178,-1.451,10.168,-9.145,0.565,629850
0.280,-0.182,-1.472,9.710,-9.954,-0.702,633870
0.283,-0.193,-1.493,9.115,-10.656,-2.000,637881
0.280,-0.202,-1.518,8.519,-11.359,-3.206,641893
0.280,-0.208,-1.539,7.679,-12.107,-4.489,645904
0.262,-0.208,-1.554,7.389,-13.221,-5.191,649918
0.259,-0.214,-1.565,6.794,-14.565,-5.374,653929
0.263,-0.220,-1.584,5.863,-15.176,-5.679,657940
0.247,-0.224,-1.599,4.901,-15.725,-5.740,661951
0.236,-0.225,-1.615,3.771,-15.924,-5.817,665962
0.220,-0.237,-1.616,2.702,-15.924,-5.710,669973
0.221,-0.240,-1.626,1.466,-15.344,-5.618,673984
0.203,-0.249,-1.624,0.489,-14.641,-5.817,677996
0.197,-0.240,-1.645,-0.794,-13.252,-6.305,682007
0.191,-0.237,-1.643,-1.985,-11.725,-6.687,686018
0.187,-0.231,-1.657,-3.023,-10.092,-7.008,690029
0.182,-0.220,-1.648,-3.588,-8.855,-7.740,694040
0.182,-0.218,-1.650,-3.221,-7.466,-8.153,698051
0.164,-0.206,-1.658,-3.221,-6.275,-8.382,702062
0.163,-0.199,-1.671,-3.084,-4.870,-8.351,706073
0.158,-0.201,-1.686,-2.489,-3.740,-8.550,710085
0.164,-0.206,-1.711,-2.046,-2.473,-8.641,714096
0.172,-0.213,-1.720,-1.802,-1.344,-8.611,718107
0.167,-0.238,-1.736,-1.954,-0.382,-8.443,722119
0.165,-0.243,-1.748,-2.427,0.351,-8.427,726129
0.163,-0.255,-1.761,-2.885,0.519,-8.183,730140
0.161,-0.272,-1.777,-3.954,0.122,-7.649,734151
0.173,-0.283,-1.772,-4.855,0.122,-7.511,738158
0.169,-0.297,-1.779,-5.863,0.336,-7.359,742169
0.170,-0.305,-1.797,-6.534,0.534,-7.237,746180
0.163,-0.316,-1.796,-7.282,0.351,-6.779,750191
0.174,-0.338,-1.809,-7.985,0.214,-6.397,754202
0.163,-0.351,-1.815,-8.427,0.107,-6.321,758214
0.162,-0.357,-1.800,-8.840,0.015,-6.092,762225
0.158,-0.362,-1.801,-9.389,0.076,-6.107,766237
0.156,-0.374,-1.786,-10.153,0.336,-6.076,770248
0.140,-0.391,-1.770,-11.282,1.191,-6.198,774259
0.125,-0.397,-1.772,-12.611,2.458,-6.229,778271
0.120,-0.413,-1.776,-14.321,4.672,-6.672,782282
0.114,-0.423,-1.777,-15.985,6.733,-7.084,786293
0.127,-0.428,-1.779,-17.588,8.794,-7.374,790304
0.140,-0.429,-1.751,-19.008,10.519,-8.168,794315
0.149,-0.431,-1.747,-20.061,12.000,-8.763,798327
0.174,-0.438,-1.729,-20.840,13.221,-9.695,802337
0.175,-0.428,-1.703,-20.962,14.366,-10.641,806348
0.183,-0.434,-1.688,-21.099,14.977,-11.969,810359
0.188,-0.431,-1.649,-21.069,15.527,-13.237,814370
0.184,-0.433,-1.642,-21.008,16.153,-14.656,818381
0.182,-0.435,-1.634,-20.626,17.756,-16.336,822392
0.184,-0.438,-1.641,-19.893,19.527,-17.847,826403
0.193,-0.445,-1.616,-19.023,21.756,-19.282,830414
0.196,-0.453,-1.608,-17.924,23.023,-20.321,834425
0.207,-0.454,-1.588,-16.977,23.695,-21.252,838435
0.231,-0.460,-1.586,-16.748,23.740,-22.412,842446
0.241,-0.479,-1.570,-16.580,23.359,-22.992,846457
0.249,-0.497,-1.569,-17.542,21.924,-23.359,850468
0.272,-0.514,-1.557,-19.313,19.420,-23.786,854479
0.269,-0.517,-1.530,-21.237,16.748,-24.305,858490
0.274,-0.523,-1.513,-22.855,14.168,-25.053,862501
0.271,-0.525,-1.492,-24.595,12.092,-25.878,866512
0.271,-0.521,-1.463,-26.153,9.588,-26.229,870523
0.260,-0.515,-1.430,-27.038,8.061,-26.687,874534
0.257,-0.512,-1.418,-27.573,7.176,-27.313,878546
0.251,-0.510,-1.388,-28.000,6.870,-27.542,882556
0.245,-0.504,-1.375,-27.664,7.267,-27.588,886567
0.240,-0.491,-1.359,-26.504,7.969,-27.618,890578
0.243,-0.476,-1.325,-25.374,8.672,-27.664,894589
0.235,-0.465,-1.301,-24.504,9.099,-28.061,898600
0.236,-0.461,-1.280,-23.252,9.802,-28.473,902611
0.234,-0.458,-1.258,-22.046,11.038,-28.779,906622
0.238,-0.451,-1.240,-20.840,12.656,-28.962,910633
0.233,-0.454,-1.222,-19.893,14.443,-28.855,914644
0.237,-0.450,-1.220,-19.908,16.412,-28.794,918655
0.242,-0.455,-1.224,-20.626,18.427,-29.145,922675
0.245,-0.450,-1.201,-21.588,20.809,-29.420,926686
0.241,-0.449,-1.180,-22.656,23.496,-29.908,930697
0.256,-0.444,-1.161,-23.389,25.359,-30.244,934708
0.272,-0.427,-1.151,-24.489,26.260,-30.534,938720
0.299,-0.426,-1.133,-25.893,26.382,-31.450,942730
0.328,-0.411,-1.125,-26.916,25.450,-32.305,946741
0.333,-0.402,-1.111,-27.573,23.466,-32.947,950752
0.351,-0.392,-1.088,-28.000,21.023,-33.221,954763
0.368,-0.399,-1.092,-28.473,18.031,-33.313,958776
0.383,-0.394,-1.073,-29.176,14.290,-33.542,962787
0.388,-0.400,-1.065,-29.634,10.366,-33.344,966799
0.385,-0.398,-1.034,-30.321,6.260,-33.084,970810
0.377,-0.393,-1.018,-30.687,2.504,-33.023,974821
0.356,-0.379,-0.988,-31.053,-1.038,-32.947,978832
0.346,-0.369,-0.948,-31.450,-4.183,-32.412,982843
0.333,-0.357,-0.921,-31.176,-6.015,-32.458,986854
0.306,-0.350,-0.913,-30.763,-6.382,-32.076,990865
0.273,-0.343,-0.906,-30.473,-5.588,-31.359,994876
0.269,-0.344,-0.922,-31.634,-5.069,-30.229,998888
0.265,-0.348,-0.901,-33.344,-4.519,-29.328,1002900
0.271,-0.347,-0.896,-35.191,-5.008,-28.382,1006911
0.275,-0.348,-0.872,-37.405,-5.893,-27.389,1010922
0.282,-0.348,-0.845,-39.435,-7.191,-26.382,1014933
0.284,-0.338,-0.838,-41.832,-9.160,-25.344,1018944
0.287,-0.337,-0.833,-44.183,-11.176,-24.534,1022964
0.282,-0.331,-0.807,-46.550,-12.809,-23.603,1026976
0.277,-0.313,-0.812,-48.947,-14.687,-22.275,1030987
0.261,-0.287,-0.796,-50.519,-16.641,-20.855,1034998
0.253,-0.250,-0.794,-52.061,-17.985,-20.000,1039009
0.227,-0.221,-0.792,-52.885,-19.115,-19.847,1043029
0.200,-0.193,-0.774,-53.267,-19.802,-19.740,1047041
0.193,-0.146,-0.759,-52.870,-19.908,-19.786,1051051
0.161,-0.117,-0.745,-51.221,-19.450,-19.450,1055062
0.143,-0.087,-0.729,-50.198,-18.519,-19.634,1059073
0.120,-0.074,-0.715,-48.748,-16.916,-19.573,1063091
0.100,-0.066,-0.706,-47.145,-16.046,-18.779,1067102
0.082,-0.059,-0.701,-45.344,-14.992,-17.893,1071113
0.077,-0.049,-0.688,-42.855,-13.893,-16.611,1075124
0.073,-0.037,-0.669,-40.305,-12.626,-14.656,1079135
0.050,-0.051,-0.646,-38.122,-10.977,-11.969,1083145
0.031,-0.058,-0.646,-36.626,-9.588,-8.824,1087157
0.012,-0.077,-0.641,-35.588,-8.656,-5.313,1091167
0.011,-0.089,-0.623,-34.947,-7.023,-1.618,1095178
0.012,-0.089,-0.627,-34.458,-4.687,2.718,1099190
0.017,-0.087,-0.631,-34.489,-2.290,6.626,1103210
0.008,-0.094,-0.622,-35.160,-0.076,10.870,1107221
0.012,-0.094,-0.616,-36.046,1.847,14.366,1111232
0.010,-0.097,-0.610,-37.084,2.748,17.603,1115243
0.028,-0.102,-0.615,-38.244,2.183,20.885,1119254
0.052,-0.095,-0.614,-39.603,0.611,23.664,1123275
0.099,-0.082,-0.594,-40.947,-1.893,25.985,1127286
0.122,-0.069,-0.585,-41.634,-5.191,27.588,1131297
0.140,-0.057,-0.581,-42.321,-9.130,28.015,1135309
0.145,-0.040,-0.564,-42.244,-13.053,28.061,1139320
0.131,-0.020,-0.555,-41.725,-16.489,27.710,1143338
0.112,-0.004,-0.557,-40.794,-19.023,27.099,1147348
0.092,0.016,-0.540,-39.023,-20.260,26.137,1151359
0.075,0.027,-0.539,-37.145,-20.824,24.580,1155370
0.066,0.042,-0.538,-34.122,-19.786,22.885,1159381
0.055,0.058,-0.548,-30.427,-17.863,21.420,1163392
0.039,0.080,-0.541,-27.038,-15.786,19.725,1167403
0.031,0.088,-0.538,-22.885,-13.374,18.351,1171414
0.012,0.095,-0.535,-18.855,-10.687,17.176,1175425
0.000,0.090,-0.532,-14.107,-6.962,16.137,1179436
-0.032,0.075,-0.518,-10.916,-2.763,15.893,1183447
-0.047,0.061,-0.524,-8.183,2.061,16.214,1187459
-0.042,0.051,-0.539,-5.527,7.328,17.435,1191469
-0.031,0.032,-0.547,-3.817,12.260,18.916,1195481
-0.005,0.016,-0.561,-3.038,16.137,20.626,1199492
0.023,-0.005,-0.568,-2.641,18.702,22.626,1203502
0.040,-0.012,-0.566,-2.779,20.000,24.504,1207513
0.066,-0.020,-0.578,-2.901,20.595,25.969,1211524
0.084,-0.029,-0.594,-3.679,19.908,27.679,1215535
0.105,-0.030,-0.607,-4.458,18.336,29.160,1219546
0.125,-0.027,-0.616,-5.374,16.198,30.336,1223557
0.130,-0.022,-0.625,-6.443,13.695,31.221,1227569
0.135,-0.028,-0.639,-7.405,10.962,31.817,1231580
0.151,-0.031,-0.644,-8.122,7.695,31.908,1235592
0.160,-0.031,-0.653,-8.687,4.534,31.786,1239603
0.159,-0.032,-0.675,-8.931,1.450,31.298,1243623
0.150,-0.038,-0.688,-8.992,-1.344,30.992,1247634
0.158,-0.037,-0.701,-8.947,-4.168,30.366,1251645
0.160,-0.034,-0.702,-8.794,-6.351,29.634,1255656
0.156,-0.028,-0.718,-8.580,-8.351,28.901,1259667
0.160,-0.023,-0.727,-7.786,-9.725,27.985,1263688
0.149,-0.024,-0.740,-7.099,-10.840,27.084,1267699
0.131,-0.024,-0.743,-6.519,-11.542,25.969,1271711
0.127,-0.020,-0.752,-5.878,-11.939,25.069,1275722
0.115,-0.026,-0.774,-5.527,-11.771,23.786,1279733
0.114,-0.028,-0.777,-5.282,-11.099,22.656,1283745
0.106,-0.027,-0.790,-4.977,-9.908,21.802,1287755
0.101,-0.035,-0.806,-5.053,-8.260,20.779,1291766
0.097,-0.034,-0.815,-4.870,-6.290,20.366,1295777
0.110,-0.042,-0.830,-4.794,-4.763,19.863,1299788
0.115,-0.049,-0.842,-5.160,-3.176,19.710,1303801
0.130,-0.054,-0.865,-5.725,-1.832,19.374,1307812
0.145,-0.056,-0.876,-6.122,-1.344,19.496,1311822
0.146,-0.074,-0.889,-7.237,-0.992,19.450,1315833
0.149,-0.078,-0.901,-8.015,-1.053,18.947,1319844
0.150,-0.072,-0.916,-8.840,-1.191,18.855,1323865
0.149,-0.071,-0.919,-9.542,-1.099,18.794,1327876
0.156,-0.073,-0.935,-10.046,-1.344,18.534,1331888
0.159,-0.068,-0.948,-10.519,-1.588,18.244,1335898
0.171,-0.077,-0.948,-11.405,-1.939,17.588,1339918
0.176,-0.067,-0.958,-11.420,-2.366,16.489,1343929
0.165,-0.069,-0.971,-11.359,-2.504,15.679,1347940
0.170,-0.052,-0.979,-11.008,-2.611,14.534,1351951
0.157,-0.058,-0.978,-10.473,-1.893,14.412,1355962
0.168,-0.053,-0.998,-9.954,-1.435,13.374,1359973
0.155,-0.057,-0.998,-9.618,-0.489,12.168,1363984
0.150,-0.054,-0.999,-9.191,0.855,11.450,1367996
0.157,-0.057,-1.010,-8.611,1.924,10.763,1372007
0.156,-0.062,-1.018,-8.427,3.038,10.198,1376018
0.167,-0.063,-1.025,-8.061,4.198,9.511,1380029
0.179,-0.066,-1.028,-8.244,4.931,8.870,1384040
0.172,-0.065,-1.030,-8.580,5.725,8.473,1388051
0.174,-0.066,-1.037,-9.023,6.168,8.031,1392062
0.188,-0.063,-1.039,-9.389,6.489,7.191,1396073
0.181,-0.065,-1.024,-9.771,7.115,6.260,1400085
0.176,-0.054,-1.029,-10.061,7.664,5.328,1404096
0.180,-0.056,-1.038,-10.412,8.061,4.901,1408107
0.181,-0.058,-1.043,-10.794,8.214,4.260,1412119
0.195,-0.067,-1.046,-11.053,7.863,3.786,1416129
0.199,-0.060,-1.055,-10.885,7.511,3.359,1420140
0.198,-0.054,-1.054,-10.901,6.718,3.573,1424151
0.196,-0.047,-1.054,-10.412,5.924,3.481,1428158
0.193,-0.048,-1.056,-9.710,4.977,3.893,1432169
0.189,-0.049,-1.060,-9.008,3.878,4.290,1436180
0.186,-0.041,-1.071,-8.351,3.496,4.748,1440191
0.177,-0.042,-1.074,-7.786,3.328,5.084,1444202
0.165,-0.039,-1.065,-7.374,3.267,5.450,1448214
0.162,-0.035,-1.071,-6.824,3.618,5.710,1452225
0.160,-0.027,-1.071,-5.985,3.802,6.015,1456237
0.171,-0.033,-1.069,-5.374,4.290,6.351,1460248
0.170,-0.024,-1.081,-4.580,4.901,6.427,1464259
0.179,-0.021,-1.085,-3.725,5.221,6.290,1468271
0.179,-0.019,-1.084,-2.992,5.527,6.229,1472282
0.181,-0.020,-1.087,-2.183,5.893,5.817,1476293
0.176,-0.024,-1.085,-1.328,5.786,5.389,1480304
0.185,-0.035,-1.092,-1.115,6.046,4.809,1484315
0.179,-0.035,-1.088,-0.763,6.702,4.504,1488327
0.181,-0.039,-1.095,-0.565,7.130,4.137,1492337
0.181,-0.042,-1.099,-0.626,7.893,3.878,1496348
0.177,-0.044,-1.094,-0.763,8.580,3.786,1500359
0.188,-0.055,-1.099,-1.328,8.962,3.511,1504370
0.193,-0.053,-1.100,-1.344,9.176,3.450,1508381
0.205,-0.051,-1.100,-1.374,9.008,3.374,1512392
0.211,-0.051,-1.110,-1.069,8.580,3.542,1516403
0.215,-0.053,-1.114,-0.809,7.908,3.908,1520414
0.218,-0.051,-1.121,-0.641,7.176,4.183,1524425
0.228,-0.054,-1.123,-0.550,6.137,4.489,1528435
0.222,-0.056,-1.121,-0.397,5.389,4.656,1532446
0.224,-0.069,-1.117,-0.321,4.275,4.702,1536457
0.230,-0.066,-1.134,-0.244,3.832,5.038,1540468
0.234,-0.058,-1.129,-0.122,2.840,5.176,1544479
0.226,-0.061,-1.136,-0.290,2.260,5.450,1548490
0.223,-0.058,-1.142,-0.321,1.832,5.221,1552501
0.216,-0.056,-1.141,-0.565,1.023,5.237,1556512
0.217,-0.061,-1.134,-0.733,0.763,5.160,1560523
0.215,-0.061,-1.138,-0.855,0.824,4.763,1564534
0.206,-0.057,-1.140,-0.794,1.191,4.519,1568546
0.197,-0.053,-1.137,-0.763,1.557,4.229,1572556
0.206,-0.057,-1.133,-0.840,1.954,4.046,1576567
0.198,-0.061,-1.143,-0.733,2.504,3.863,1580578
0.203,-0.062,-1.148,-0.840,3.023,3.985,1584589
0.205,-0.068,-1.153,-0.901,3.634,4.092,1588600
0.207,-0.072,-1.149,-1.313,3.740,4.290,1592611
0.215,-0.080,-1.157,-1.893,3.679,4.397,1596622
0.218,-0.090,-1.160,-2.504,3.420,4.931,1600633
0.229,-0.093,-1.174,-3.130,3.435,5.160,1604644
0.230,-0.086,-1.172,-3.695,2.947,5.588,1608655
0.244,-0.091,-1.172,-4.153,2.397,5.847,1612675
0.245,-0.088,-1.167,-4.687,1.405,6.046,1616686
0.252,-0.085,-1.171,-5.282,0.107,5.771,1620697
0.246,-0.084,-1.163,-5.573,-0.733,5.481,1624708
0.240,-0.081,-1.164,-5.802,-1.664,5.115,1628720
0.236,-0.073,-1.158,-6.244,-2.076,4.489,1632730
0.232,-0.068,-1.161,-6.779,-2.214,3.969,1636741
0.233,-0.071,-1.165,-7.008,-1.832,3.176,1640752
0.224,-0.074,-1.157,-7.359,-1.206,2.305,1644763
0.216,-0.068,-1.159,-7.344,-0.412,1.481,1648776
0.214,-0.064,-1.152,-7.130,0.611,1.160,1652787
0.220,-0.062,-1.156,-7.038,1.420,0.504,1656799
0.220,-0.065,-1.155,-7.023,1.878,0.229,1660810
0.217,-0.073,-1.150,-6.840,2.580,-0.137,1664821
0.219,-0.069,-1.150,-6.779,2.885,-0.229,1668832
0.222,-0.073,-1.139,-6.947,3.053,-0.122,1672843
0.226,-0.073,-1.146,-7.053,3.420,-0.031,1676854
0.226,-0.071,-1.144,-7.176,3.725,0.015,1680865
0.229,-0.080,-1.144,-7.374,3.695,0.076,1684876
0.229,-0.077,-1.143,-7.679,3.679,0.061,1688888
0.220,-0.082,-1.149,-7.939,3.435,0.107,1692900
0.230,-0.078,-1.140,-8.183,3.221,0.092,1696911
0.232,-0.076,-1.151,-8.183,2.763,0.046,1700922
0.235,-0.080,-1.143,-8.504,2.260,-0.076,1704933
0.231,-0.084,-1.143,-8.870,1.878,-0.076,1708944
0.234,-0.079,-1.146,-8.885,1.328,-0.183,1712964
0.242,-0.085,-1.142,-8.794,1.099,-0.336,1716976
0.238,-0.080,-1.136,-8.794,0.504,-0.137,1720987
0.254,-0.074,-1.143,-8.641,-0.427,-0.397,1724998
0.247,-0.072,-1.139,-8.397,-1.237,-0.641,1729009
0.262,-0.078,-1.147,-8.443,-2.122,-0.656,1733029
0.243,-0.069,-1.145,-8.595,-2.763,-0.809,1737041
0.247,-0.070,-1.137,-8.458,-3.832,-0.870,1741051
0.243,-0.064,-1.133,-8.305,-3.863,-1.008,1745062
0.234,-0.051,-1.145,-7.847,-3.405,-1.511,1749073
0.220,-0.043,-1.146,-7.481,-2.534,-1.634,1753091
0.213,-0.039,-1.144,-6.947,-1.496,-1.939,1757102
0.214,-0.040,-1.138,-6.275,-0.519,-2.656,1761113
0.214,-0.030,-1.135,-5.740,0.458,-2.840,1765124
0.217,-0.039,-1.137,-5.053,1.191,-3.038,1769135
0.219,-0.030,-1.148,-4.458,2.198,-3.099,1773145
0.221,-0.039,-1.155,-4.290,2.733,-3.282,1777157
0.223,-0.045,-1.154,-4.153,2.885,-3.206,1781167
0.228,-0.050,-1.144,-4.321,3.176,-3.359,1785178
0.231,-0.050,-1.157,-4.519,3.389,-3.405,1789190
0.235,-0.053,-1.153,-4.885,3.084,-3.252,1793210
0.233,-0.055,-1.144,-5.160,2.763,-3.008,1797221
0.240,-0.051,-1.143,-5.664,2.489,-2.840,1801232
0.243,-0.054,-1.145,-6.198,1.847,-2.962,1805243
0.243,-0.053,-1.140,-6.855,1.069,-2.840,1809254
0.247,-0.053,-1.132,-7.160,-0.153,-3.069,1813275
0.251,-0.046,-1.127,-7.573,-1.298,-3.023,1817286
0.240,-0.045,-1.121,-7.939,-2.519,-3.053,1821297
0.235,-0.043,-1.125,-8.336,-3.542,-2.916,1825309
0.222,-0.047,-1.120,-8.611,-4.183,-2.916,1829320
0.218,-0.045,-1.121,-8.672,-4.611,-2.870,1833338
0.212,-0.039,-1.116,-8.504,-5.023,-2.809,1837348
0.217,-0.044,-1.119,-8.504,-4.977,-2.748,1841359
0.205,-0.042,-1.117,-8.702,-4.611,-2.794,1845370
0.212,-0.043,-1.124,-8.840,-4.443,-2.458,1849381
0.197,-0.047,-1.119,-8.641,-4.015,-2.504,1853392
0.202,-0.043,-1.125,-8.916,-3.771,-2.702,1857403
0.203,-0.045,-1.128,-9.221,-3.374,-2.947,1861414
0.206,-0.041,-1.120,-9.527,-3.099,-3.084,1865425
0.209,-0.043,-1.130,-9.863,-3.206,-3.435,1869436
0.204,-0.040,-1.122,-10.061,-3.099,-3.969,1873447
0.207,-0.045,-1.121,-10.244,-3.130,-4.229,1877459
0.201,-0.040,-1.126,-10.504,-3.450,-4.504,1881469
0.203,-0.038,-1.116,-10.351,-3.588,-4.840,1885481
0.193,-0.031,-1.110,-10.244,-3.557,-4.931,1889492
0.189,-0.033,-1.119,-9.786,-3.496,-5.069,1893502
0.185,-0.026,-1.112,-9.252,-3.115,-5.237,1897513
0.178,-0.017,-1.110,-8.473,-2.702,-5.099,1901524
0.182,-0.016,-1.113,-7.603,-2.092,-5.160,1905535
0.176,-0.014,-1.100,-6.489,-1.588,-5.099,1909546
0.177,-0.018,-1.109,-5.603,-1.160,-4.809,1913557
0.173,-0.010,-1.110,-4.656,-0.840,-4.458,1917569
0.176,-0.023,-1.105,-3.420,-0.489,-4.260,1921580
0.177,-0.021,-1.113,-2.687,-0.351,-4.046,1925592
0.182,-0.020,-1.114,-2.015,-0.412,-3.679,1929603
0.184,-0.014,-1.118,-1.664,-0.351,-3.237,1933623
0.184,-0.025,-1.116,-1.252,-0.427,-2.992,1937634
0.184,-0.036,-1.115,-1.328,-0.702,-2.656,1941645
0.179,-0.030,-1.117,-1.435,-0.733,-2.229,1945656
0.182,-0.032,-1.115,-1.832,-1.145,-2.198,1949667
0.186,-0.031,-1.117,-2.412,-1.282,-2.031,1953688
0.175,-0.024,-1.109,-2.611,-1.389,-2.122,1957699
0.179,-0.028,-1.119,-3.084,-1.206,-1.969,1961711
0.170,-0.023,-1.120,-3.634,-1.130,-2.046,1965722
0.173,-0.022,-1.116,-4.336,-1.099,-1.939,1969733
0.175,-0.027,-1.123,-4.672,-1.298,-1.679,1973745
0.179,-0.020,-1.124,-4.641,-1.603,-1.740,1977755
0.179,-0.029,-1.124,-4.443,-2.000,-1.634,1981766
0.180,-0.025,-1.128,-4.061,-2.397,-1.298,1985777
0.176,-0.024,-1.124,-3.710,-2.794,-1.252,1989788
0.175,-0.022,-1.132,-3.466,-3.115,-0.809,1993801
0.173,-0.026,-1.129,-2.947,-3.405,-0.656,1997812
0.164,-0.026,-1.131,-2.718,-3.298,-0.275,2001823
