acc_x,acc_y,acc_z,gyro_x,gyro_y,gyro_z,time
0.190,-0.165,-1.108,-4.992,1.573,-0.656,768866746
0.184,-0.158,-1.107,-4.901,1.817,-0.504,768870790
0.191,-0.164,-1.104,-5.069,1.832,-0.473,768874804
0.189,-0.166,-1.089,-5.221,1.817,-0.366,768878815
0.197,-0.161,-1.103,-5.634,2.015,-0.443,768882826
0.197,-0.162,-1.100,-5.756,1.740,-0.275,768886837
0.197,-0.168,-1.099,-5.679,1.893,-0.412,768890848
0.198,-0.165,-1.093,-5.603,1.527,-0.321,768894855
0.193,-0.165,-1.098,-5.435,1.725,-0.260,768898867
0.198,-0.159,-1.096,-5.344,1.282,-0.168,768902878
0.196,-0.162,-1.103,-5.496,1.389,-0.214,768906889
0.200,-0.164,-1.102,-5.695,1.221,-0.153,768910901
0.192,-0.158,-1.102,-5.588,0.916,-0.229,768914909
0.207,-0.159,-1.102,-5.359,0.550,-0.122,768918920
0.198,-0.161,-1.099,-4.885,0.565,-0.260,768922931
0.206,-0.154,-1.104,-4.809,0.031,-0.290,768926942
0.199,-0.163,-1.104,-4.733,-0.015,-0.260,768930953
0.204,-0.162,-1.106,-4.641,-0.382,-0.443,768934967
0.199,-0.161,-1.105,-4.916,-0.534,-0.443,768938978
0.194,-0.162,-1.109,-4.977,-0.321,-0.580,768942990
0.189,-0.161,-1.103,-5.084,-0.382,-0.321,768947000
0.186,-0.166,-1.107,-5.008,-0.046,-0.412,768951011
0.190,-0.166,-1.103,-4.947,0.321,-0.489,768955022
0.180,-0.160,-1.104,-4.870,0.595,-0.122,768959034
0.184,-0.162,-1.107,-5.221,1.145,-0.336,768963045
0.184,-0.162,-1.097,-5.466,1.359,-0.260,768967057
0.185,-0.163,-1.099,-5.679,1.557,-0.168,768971068
0.190,-0.160,-1.091,-5.634,1.878,-0.198,768975080
0.191,-0.159,-1.093,-5.420,1.649,-0.366,768979091
0.199,-0.163,-1.090,-5.237,1.664,-0.290,768983103
0.197,-0.165,-1.100,-5.237,1.435,-0.153,768987114
0.198,-0.160,-1.097,-5.115,1.435,-0.229,768991125
0.204,-0.168,-1.097,-5.145,1.130,-0.092,768995136
0.205,-0.162,-1.105,-5.221,1.069,-0.321,768999147
0.202,-0.160,-1.098,-5.344,0.550,-0.427,769003158
0.201,-0.166,-1.106,-5.389,0.473,-0.366,769007169
0.201,-0.161,-1.112,-5.206,0.183,-0.382,769011180
0.201,-0.161,-1.101,-5.084,0.305,-0.244,769015191
0.192,-0.163,-1.096,-5.130,0.504,-0.275,769019202
0.188,-0.158,-1.102,-5.191,0.489,-0.382,769023214
0.192,-0.158,-1.095,-5.420,0.687,-0.275,769027224
0.199,-0.156,-1.107,-5.420,1.023,-0.366,769031235
0.188,-0.162,-1.100,-5.252,1.084,-0.305,769035246
0.195,-0.159,-1.090,-5.267,1.053,-0.519,769039257
0.191,-0.158,-1.098,-5.023,1.252,-0.351,769043269
0.188,-0.162,-1.096,-4.992,1.145,-0.458,769047279
0.184,-0.162,-1.100,-5.145,1.802,-0.595,769051290
0.186,-0.166,-1.101,-5.374,1.771,-0.397,769055298
0.186,-0.162,-1.105,-5.450,2.061,-0.229,769059310
0.188,-0.159,-1.096,-5.496,1.985,-0.473,769063320
0.188,-0.167,-1.104,-5.359,2.351,-0.458,769067331
0.191,-0.161,-1.103,-5.252,2.305,-0.550,769071343
0.190,-0.155,-1.098,-5.176,2.687,-0.443,769075354
0.198,-0.167,-1.101,-5.511,2.687,-0.351,769079365
0.197,-0.167,-1.094,-5.664,2.580,-0.275,769083376
0.202,-0.169,-1.094,-5.847,2.565,-0.443,769087387
0.197,-0.168,-1.094,-5.969,2.565,-0.366,769091398
0.197,-0.167,-1.110,-5.969,2.443,-0.229,769095410
0.198,-0.163,-1.106,-5.557,1.969,-0.137,769099431
0.198,-0.159,-1.100,-5.405,1.985,-0.244,769103441
0.199,-0.158,-1.104,-5.389,1.908,-0.015,769107452
0.202,-0.156,-1.099,-5.389,1.679,-0.031,769111463
0.201,-0.156,-1.105,-5.466,1.221,0.015,769115475
0.205,-0.161,-1.097,-5.221,1.511,-0.092,769119490
0.198,-0.158,-1.103,-5.130,1.130,-0.092,769123500
0.199,-0.164,-1.100,-5.053,0.947,-0.046,769127511
0.203,-0.170,-1.099,-5.023,1.038,-0.168,769131522
0.197,-0.159,-1.106,-4.870,1.069,-0.336,769135534
0.189,-0.159,-1.098,-4.977,0.824,-0.458,769139545
0.195,-0.163,-1.107,-5.237,0.641,-0.489,769143557
0.195,-0.159,-1.098,-5.145,0.656,-0.336,769147568
0.197,-0.159,-1.101,-5.145,0.763,-0.489,769151579
0.194,-0.153,-1.096,-5.145,0.672,-0.427,769155590
0.195,-0.162,-1.094,-4.763,0.412,-0.443,769159601
0.202,-0.165,-1.095,-4.748,0.214,-0.336,769163611
0.191,-0.163,-1.095,-4.992,0.336,-0.427,769167622
0.191,-0.163,-1.106,-5.252,0.382,-0.550,769171634
0.188,-0.164,-1.104,-5.527,0.290,-0.473,769175645
0.187,-0.164,-1.105,-5.511,0.137,-0.611,769179655
0.190,-0.163,-1.098,-5.450,0.519,-0.305,769183666
0.183,-0.161,-1.091,-5.206,1.176,-0.427,769187677
0.185,-0.157,-1.099,-5.344,1.221,-0.305,769191688
0.183,-0.161,-1.098,-5.267,1.435,-0.244,769195699
0.192,-0.163,-1.095,-5.756,1.359,-0.382,769199719
0.197,-0.166,-1.096,-5.695,1.450,-0.198,769203731
0.189,-0.161,-1.101,-5.985,1.603,-0.336,769207742
0.192,-0.165,-1.098,-5.969,1.435,-0.153,769211753
0.200,-0.161,-1.092,-5.756,1.191,-0.168,769215765
0.193,-0.158,-1.103,-5.725,0.992,-0.015,769219785
0.204,-0.168,-1.101,-5.603,1.176,0.031,769223796
0.202,-0.159,-1.098,-5.802,1.115,-0.031,769227807
0.194,-0.167,-1.102,-5.756,0.794,0.153,769231819
0.196,-0.155,-1.102,-5.893,0.412,0.061,769235830
0.195,-0.164,-1.106,-5.649,0.473,-0.107,769239841
0.201,-0.163,-1.095,-5.710,0.198,0.015,769243852
0.191,-0.164,-1.104,-5.359,0.687,0.198,769247863
0.191,-0.158,-1.100,-5.542,0.519,-0.107,769251874
0.190,-0.160,-1.102,-5.481,0.672,0.031,769255885
0.179,-0.158,-1.112,-5.954,1.130,0.137,769259895
0.179,-0.161,-1.101,-5.878,1.038,0.244,769263907
0.181,-0.158,-1.103,-5.878,1.618,0.153,769267917
0.181,-0.164,-1.104,-5.756,1.756,0.183,769271928
0.186,-0.160,-1.107,-5.679,1.954,0.183,769275939
0.179,-0.162,-1.102,-5.695,2.321,0.214,769279960
0.186,-0.158,-1.103,-5.863,2.641,0.443,769283971
0.175,-0.154,-1.104,-6.214,3.038,0.305,769287983
0.187,-0.158,-1.108,-6.427,3.527,0.412,769291994
0.179,-0.154,-1.107,-6.504,3.740,0.794,769296005
0.173,-0.155,-1.107,-6.687,4.366,0.718,769300026
0.175,-0.147,-1.104,-6.794,4.977,1.069,769304037
0.184,-0.149,-1.107,-6.901,5.130,1.115,769308048
0.188,-0.146,-1.107,-6.611,5.832,1.634,769312059
0.188,-0.144,-1.103,-6.198,6.122,1.908,769316071
0.197,-0.145,-1.118,-5.863,6.336,1.771,769320088
0.198,-0.142,-1.122,-5.237,6.672,1.832,769324099
0.202,-0.143,-1.138,-4.244,6.748,1.603,769328110
0.199,-0.142,-1.147,-2.534,6.656,1.389,769332121
0.190,-0.144,-1.153,-0.977,7.099,1.542,769336132
0.194,-0.145,-1.165,0.504,6.779,1.802,769340143
0.186,-0.154,-1.169,1.725,7.069,1.817,769344154
0.189,-0.157,-1.176,3.053,7.924,1.634,769348165
0.182,-0.144,-1.195,4.718,8.336,1.069,769352176
0.171,-0.135,-1.199,6.366,8.489,0.504,769356187
0.161,-0.115,-1.222,8.092,9.023,-0.168,769360198
0.172,-0.105,-1.232,8.794,10.137,-1.191,769364209
0.170,-0.093,-1.255,9.817,11.313,-2.427,769368220
0.172,-0.068,-1.254,11.939,11.969,-3.542,769372231
0.185,-0.044,-1.291,14.672,12.336,-4.504,769376242
0.201,-0.025,-1.329,18.092,13.252,-5.053,769380253
0.219,-0.001,-1.382,21.588,14.687,-5.756,769384264
0.218,0.008,-1.444,25.252,16.931,-6.611,769388275
0.205,0.002,-1.523,28.565,19.298,-8.153,769392286
0.185,0.011,-1.597,33.817,22.397,-9.740,769396297
0.186,0.015,-1.676,40.550,24.427,-11.374,769400312
0.201,0.007,-1.788,49.618,26.321,-12.626,769404324
0.236,-0.009,-1.892,60.168,27.557,-13.603,769408335
0.280,-0.039,-1.993,71.099,29.252,-13.405,769412346
0.330,-0.085,-2.115,82.061,30.779,-11.969,769416358
0.383,-0.141,-2.199,93.832,29.908,-9.618,769420377
0.458,-0.219,-2.304,104.947,27.466,-6.031,769424389
0.520,-0.312,-2.406,113.817,22.504,-1.237,769428400
0.589,-0.401,-2.480,119.832,15.099,3.160,769432412
0.688,-0.527,-2.543,118.962,4.824,6.779,769436423
0.773,-0.658,-2.627,113.771,-3.893,8.000,769440444
0.768,-0.742,-2.699,107.405,-9.221,6.519,769444455
0.686,-0.778,-2.759,99.664,-11.802,5.511,769448466
0.555,-0.781,-2.828,91.084,-12.046,3.985,769452477
0.452,-0.773,-2.881,81.160,-9.389,1.511,769456488
0.372,-0.771,-2.917,71.664,-3.176,-2.290,769460499
0.334,-0.784,-2.951,61.802,5.969,-7.725,769464510
0.325,-0.826,-2.971,53.145,16.748,-13.206,769468522
0.354,-0.807,-2.992,43.237,28.061,-21.008,769472533
0.374,-0.790,-2.997,35.756,39.969,-28.229,769476544
0.385,-0.758,-3.002,29.084,51.893,-34.321,769480554
0.416,-0.731,-2.989,23.557,62.244,-39.344,769484565
0.454,-0.724,-2.975,18.718,70.748,-43.649,769488577
0.504,-0.737,-2.939,14.458,76.794,-48.260,769492587
0.564,-0.742,-2.916,11.374,79.115,-52.534,769496598
0.611,-0.738,-2.861,9.038,77.954,-55.893,769500619
0.660,-0.739,-2.821,6.656,75.573,-58.458,769504630
0.695,-0.727,-2.771,3.496,72.565,-60.794,769508641
0.713,-0.728,-2.718,0.046,67.771,-62.214,769512652
0.718,-0.710,-2.657,-3.695,61.328,-62.595,769516665
0.719,-0.713,-2.586,-7.344,52.977,-62.412,769520676
0.708,-0.700,-2.507,-10.702,44.046,-62.656,769524687
0.714,-0.697,-2.442,-14.427,35.115,-63.282,769528698
0.697,-0.708,-2.371,-18.321,26.275,-63.710,769532709
0.686,-0.721,-2.287,-22.794,18.046,-64.351,769536721
0.666,-0.732,-2.220,-27.878,10.290,-64.992,769540732
0.642,-0.735,-2.146,-33.099,2.977,-65.206,769544743
0.611,-0.732,-2.063,-38.153,-2.565,-65.481,769548754
0.581,-0.711,-1.979,-42.595,-7.832,-65.069,769552765
0.560,-0.695,-1.916,-47.695,-11.939,-64.580,769556776
0.537,-0.680,-1.847,-52.153,-15.573,-63.573,769560787
0.531,-0.657,-1.789,-55.466,-18.397,-62.061,769564798
0.528,-0.632,-1.714,-58.153,-20.962,-60.977,769568810
0.537,-0.615,-1.643,-60.427,-24.840,-59.420,769572821
0.573,-0.600,-1.590,-63.267,-29.130,-57.847,769576832
0.594,-0.595,-1.521,-65.924,-33.573,-55.847,769580844
0.609,-0.600,-1.475,-68.656,-38.366,-52.779,769584855
0.598,-0.602,-1.421,-70.580,-43.542,-49.206,769588866
0.607,-0.590,-1.368,-73.802,-49.863,-47.817,769592877
0.597,-0.584,-1.315,-77.160,-56.458,-47.344,769596889
0.589,-0.586,-1.271,-81.053,-62.748,-46.534,769600900
0.581,-0.587,-1.226,-85.237,-67.954,-44.885,769604909
0.567,-0.592,-1.170,-89.969,-73.420,-42.275,769608920
0.560,-0.584,-1.129,-94.885,-78.397,-38.748,769612931
0.541,-0.582,-1.073,-99.924,-82.702,-35.252,769616942
0.514,-0.561,-1.019,-104.702,-86.565,-31.282,769620953
0.479,-0.527,-0.972,-108.672,-90.687,-27.573,769624967
0.446,-0.497,-0.924,-112.489,-91.115,-23.985,769628977
0.436,-0.464,-0.873,-116.092,-93.878,-20.779,769632989
0.404,-0.454,-0.816,-119.099,-97.282,-17.527,769636999
0.382,-0.442,-0.770,-122.260,-99.176,-15.328,769641010
0.353,-0.408,-0.701,-124.580,-96.962,-13.420,769645022
0.302,-0.399,-0.655,-127.237,-97.237,-9.863,769649033
0.275,-0.377,-0.610,-129.221,-96.840,-6.275,769653044
0.254,-0.341,-0.566,-130.656,-94.336,-4.809,769657055
0.236,-0.296,-0.526,-130.977,-91.878,-5.145,769661066
0.193,-0.243,-0.502,-129.542,-83.725,-4.718,769665079
0.162,-0.232,-0.458,-130.092,-78.305,-4.031,769669090
0.131,-0.193,-0.405,-128.321,-82.427,-6.397,769673101
0.123,-0.206,-0.427,-129.282,-81.802,-5.954,769677112
0.109,-0.206,-0.387,-127.511,-81.557,-3.176,769681123
0.101,-0.195,-0.384,-124.794,-79.511,0.931,769685134
0.112,-0.184,-0.367,-123.527,-76.137,4.244,769689145
0.095,-0.160,-0.340,-121.374,-72.458,6.641,769693157
0.065,-0.146,-0.325,-119.405,-68.290,9.099,769697167
0.037,-0.126,-0.323,-116.947,-62.962,11.328,769701178
0.010,-0.111,-0.308,-114.168,-57.405,12.183,769705189
-0.027,-0.094,-0.297,-110.672,-51.771,12.122,769709200
-0.066,-0.070,-0.307,-107.176,-46.275,11.466,769713211
-0.096,-0.064,-0.318,-104.366,-39.618,10.412,769717222
-0.134,-0.053,-0.327,-101.435,-31.344,9.542,769721233
-0.167,-0.054,-0.328,-98.992,-21.832,9.756,769725244
-0.201,-0.059,-0.328,-96.504,-11.435,11.252,769729255
-0.225,-0.072,-0.344,-95.130,-1.267,14.351,769733266
-0.228,-0.081,-0.332,-94.397,8.870,18.489,769737277
-0.228,-0.094,-0.322,-93.603,17.557,22.382,769741288
-0.203,-0.104,-0.308,-91.725,24.947,27.145,769745296
-0.160,-0.111,-0.303,-88.702,31.649,32.412,769749307
-0.114,-0.101,-0.303,-84.855,37.893,38.748,769753319
-0.061,-0.088,-0.312,-78.931,39.679,46.336,769757329
-0.006,-0.076,-0.310,-72.565,40.611,52.794,769761340
0.040,-0.099,-0.312,-66.977,37.756,61.252,769765351
0.075,-0.137,-0.317,-61.374,31.405,69.206,769769362
0.108,-0.180,-0.350,-57.252,25.176,75.481,769773373
0.121,-0.197,-0.348,-55.038,18.489,81.374,769777385
0.130,-0.208,-0.361,-53.496,10.885,86.183,769781396
0.147,-0.190,-0.359,-50.885,1.588,89.511,769785407
0.149,-0.180,-0.371,-49.679,-6.031,90.260,769789428
0.145,-0.175,-0.370,-50.046,-11.496,88.046,769793439
0.114,-0.197,-0.365,-52.229,-16.092,83.832,769797450
0.073,-0.228,-0.350,-55.099,-15.740,78.565,769801461
0.028,-0.219,-0.301,-56.947,-17.038,74.595,769805474
-0.012,-0.201,-0.270,-58.962,-14.687,71.664,769809490
-0.061,-0.201,-0.256,-60.687,-8.611,69.908,769813500
-0.089,-0.208,-0.259,-64.336,-0.275,69.008,769817511
-0.111,-0.240,-0.239,-71.634,8.947,68.611,769821522
-0.115,-0.268,-0.242,-80.382,17.756,69.069,769825534
-0.112,-0.266,-0.212,-87.008,26.824,70.244,769829545
-0.081,-0.253,-0.178,-91.588,35.618,72.931,769833557
-0.020,-0.242,-0.159,-95.740,43.008,76.244,769837568
0.052,-0.229,-0.139,-98.366,48.794,80.672,769841579
0.142,-0.202,-0.106,-99.420,50.855,84.916,769845590
0.226,-0.181,-0.104,-99.267,48.763,88.916,769849601
0.307,-0.175,-0.113,-98.305,43.282,92.076,769853611
0.369,-0.165,-0.114,-96.229,34.595,95.084,769857622
0.432,-0.156,-0.127,-93.053,23.634,97.969,769861634
0.467,-0.157,-0.160,-89.954,12.275,100.229,769865645
0.479,-0.134,-0.179,-86.366,0.962,101.496,769869655
0.460,-0.101,-0.200,-83.099,-9.115,101.664,769873666
0.424,-0.061,-0.225,-79.435,-18.183,101.511,769877677
0.378,-0.017,-0.223,-76.076,-24.244,101.160,769881688
0.352,0.008,-0.257,-73.802,-27.649,100.641,769885699
0.327,0.042,-0.265,-72.733,-28.702,99.084,769889719
0.303,0.055,-0.310,-73.008,-25.450,97.008,769893730
0.286,0.074,-0.294,-74.412,-22.366,94.397,769897741
0.289,0.107,-0.282,-75.176,-20.412,90.992,769901752
0.302,0.141,-0.280,-76.489,-17.969,85.832,769905763
0.321,0.174,-0.300,-77.863,-15.008,79.450,769909784
0.319,0.211,-0.278,-78.244,-13.542,72.214,769913795
0.286,0.253,-0.262,-77.313,-9.908,64.550,769917806
0.297,0.283,-0.311,-76.031,-8.489,57.191,769921818
0.271,0.320,-0.304,-73.557,-6.183,49.542,769925829
0.269,0.334,-0.307,-70.840,-4.260,42.290,769929840
0.259,0.341,-0.328,-68.244,-1.954,35.282,769933851
0.262,0.342,-0.341,-65.038,0.260,29.099,769937862
0.264,0.349,-0.350,-62.046,1.969,23.115,769941873
0.267,0.352,-0.377,-58.809,3.679,18.244,769945884
0.272,0.356,-0.375,-55.450,4.290,13.832,769949895
0.273,0.382,-0.397,-51.817,4.427,9.756,769953906
0.269,0.407,-0.426,-47.695,4.000,5.145,769957917
0.249,0.413,-0.438,-43.511,5.420,-0.153,769961928
0.219,0.425,-0.474,-39.496,6.351,-4.702,769965939
0.188,0.402,-0.553,-36.519,1.786,-8.824,769969959
0.147,0.429,-0.532,-33.893,8.748,-13.344,769973970
0.112,0.429,-0.544,-31.252,12.137,-17.115,769977981
0.062,0.417,-0.578,-28.443,15.374,-19.695,769981992
0.050,0.403,-0.600,-26.168,19.328,-23.740,769986003
0.048,0.408,-0.626,-23.893,24.244,-25.710,769990023
0.040,0.410,-0.656,-21.771,28.840,-27.435,769994034
0.046,0.414,-0.687,-19.985,33.023,-28.947,769998045
0.041,0.398,-0.699,-18.321,36.626,-30.336,770002056
0.048,0.402,-0.724,-16.794,39.618,-31.649,770006067
0.062,0.400,-0.743,-14.718,42.336,-32.595,770010085
0.074,0.419,-0.750,-13.069,44.550,-33.038,770014097
0.083,0.444,-0.776,-11.908,44.656,-34.015,770018108
0.085,0.451,-0.772,-10.824,42.840,-35.649,770022119
0.065,0.445,-0.855,-7.679,53.053,-34.214,770026130
0.050,0.450,-0.763,-5.191,50.611,-33.664,770030141
0.050,0.445,-0.788,-3.160,51.939,-33.252,770034152
0.060,0.442,-0.775,-1.023,52.931,-32.550,770038163
0.057,0.454,-0.778,1.450,52.840,-31.405,770042174
0.052,0.452,-0.787,3.542,52.366,-29.374,770046185
0.062,0.426,-0.797,4.534,51.710,-27.527,770050196
0.067,0.408,-0.789,4.901,50.153,-26.397,770054207
0.078,0.387,-0.779,6.458,49.328,-26.092,770058218
0.050,0.370,-0.812,9.618,51.115,-22.412,770062229
0.047,0.371,-0.812,8.000,48.916,-17.878,770066240
0.055,0.399,-0.824,11.542,46.794,-16.214,770070251
0.072,0.407,-0.855,11.893,46.443,-14.595,770074262
0.081,0.426,-0.876,12.718,44.611,-11.160,770078273
0.107,0.451,-0.887,14.779,41.084,-7.985,770082284
0.142,0.456,-0.894,14.427,37.160,-5.511,770086295
0.185,0.471,-0.900,16.046,33.115,-4.870,770090305
0.204,0.469,-0.919,17.069,28.672,-4.824,770094316
0.213,0.460,-0.933,17.954,24.595,-4.290,770098327
0.218,0.441,-0.942,18.458,20.473,-3.252,770102338
0.226,0.419,-0.962,18.672,15.496,-1.878,770106349
0.243,0.396,-0.968,18.305,10.840,-1.038,770110369
0.262,0.376,-0.973,17.145,5.221,-0.901,770114381
0.274,0.358,-0.980,15.435,-0.611,-1.847,770118392
0.267,0.318,-0.983,13.664,-6.046,-2.718,770122403
0.253,0.284,-0.993,11.740,-10.931,-3.069,770126415
0.231,0.264,-1.007,9.603,-14.305,-2.305,770130435
0.213,0.253,-1.016,7.313,-17.069,-0.763,770134447
0.198,0.263,-1.009,5.130,-19.481,0.611,770138458
0.173,0.281,-1.026,3.756,-21.435,1.527,770142470
0.172,0.284,-1.044,1.939,-22.718,2.504,770146481
0.171,0.285,-1.047,0.061,-24.443,3.802,770150492
0.182,0.290,-1.056,-0.992,-24.794,5.191,770154503
0.184,0.299,-1.061,-1.603,-25.267,6.611,770158514
0.191,0.297,-1.081,-1.832,-25.756,8.885,770162525
0.214,0.313,-1.093,-1.511,-26.702,10.748,770166536
0.225,0.300,-1.084,-2.305,-26.641,12.260,770170548
0.240,0.294,-1.086,-2.656,-27.496,14.229,770174559
0.249,0.293,-1.086,-2.748,-28.397,16.061,770178571
0.258,0.282,-1.092,-2.992,-29.145,16.672,770182582
0.251,0.272,-1.094,-2.870,-29.191,17.267,770186593
0.223,0.262,-1.096,-3.176,-28.916,17.420,770190614
0.200,0.246,-1.099,-3.252,-27.420,18.168,770194625
0.163,0.242,-1.089,-3.695,-24.870,17.985,770198636
0.147,0.234,-1.103,-3.573,-22.061,17.084,770202647
0.130,0.241,-1.101,-2.702,-18.397,15.740,770206664
0.115,0.244,-1.109,-1.649,-14.550,14.000,770210675
0.110,0.239,-1.116,-0.351,-9.237,12.290,770214686
0.107,0.250,-1.120,1.466,-3.954,10.656,770218697
0.114,0.261,-1.125,3.191,1.084,8.947,770222708
0.116,0.262,-1.121,4.626,6.275,7.008,770226719
0.125,0.244,-1.133,5.985,10.443,5.542,770230730
0.144,0.248,-1.133,7.405,14.534,4.473,770234742
0.169,0.238,-1.138,8.275,17.649,3.130,770238753
0.201,0.234,-1.127,9.221,19.878,2.031,770242764
0.224,0.227,-1.140,9.649,20.275,0.901,770246775
0.253,0.229,-1.127,9.695,20.809,-0.183,770250786
0.271,0.215,-1.135,9.908,20.733,-1.191,770254798
0.288,0.214,-1.134,9.649,19.359,-1.435,770258809
0.301,0.204,-1.123,9.405,17.695,-1.359,770262820
0.309,0.211,-1.121,8.672,15.878,-1.603,770266832
0.309,0.207,-1.120,8.214,14.336,-2.275,770270843
0.292,0.196,-1.118,7.008,12.504,-2.534,770274854
0.286,0.185,-1.117,5.634,10.290,-2.962,770278865
0.272,0.170,-1.116,4.473,8.382,-3.847,770282876
0.254,0.170,-1.113,3.679,8.122,-5.099,770286887
0.231,0.173,-1.115,2.840,7.344,-5.756,770290898
0.201,0.189,-1.105,2.229,7.939,-6.275,770294905
0.195,0.204,-1.108,1.282,8.534,-6.015,770298916
0.197,0.207,-1.113,0.718,8.947,-5.878,770302927
0.210,0.232,-1.101,-0.015,9.282,-5.893,770306938
0.228,0.244,-1.103,-0.412,9.679,-6.351,770310949
0.241,0.243,-1.095,-0.901,9.206,-6.519,770314962
0.252,0.239,-1.099,-0.962,8.748,-6.397,770318972
0.257,0.230,-1.087,-1.069,7.756,-5.710,770322983
0.261,0.228,-1.091,-1.328,6.397,-5.038,770326994
0.267,0.229,-1.093,-1.847,4.992,-4.427,770331005
0.265,0.235,-1.084,-2.168,3.435,-4.031,770335016
0.265,0.239,-1.074,-2.794,2.183,-3.450,770339027
0.266,0.232,-1.069,-3.313,0.321,-3.084,770343038
0.252,0.224,-1.059,-3.756,-1.450,-2.595,770347049
0.252,0.230,-1.044,-4.137,-2.840,-1.985,770351060
0.242,0.236,-1.046,-4.275,-4.198,-1.405,770355071
0.228,0.245,-1.039,-4.061,-5.527,-0.336,770359082
0.228,0.245,-1.032,-3.817,-6.260,0.458,770363093
0.214,0.247,-1.047,-3.450,-6.397,1.069,770367105
0.213,0.244,-1.047,-3.038,-6.504,1.847,770371116
0.202,0.251,-1.045,-2.534,-6.473,2.870,770375126
0.208,0.271,-1.056,-1.802,-6.031,3.832,770379138
0.210,0.271,-1.051,-1.176,-5.832,4.718,770383148
0.214,0.264,-1.058,-0.534,-5.435,5.069,770387159
0.217,0.253,-1.059,-0.183,-4.824,5.557,770391171
0.216,0.245,-1.061,-0.061,-4.290,6.168,770395181
0.219,0.249,-1.069,-0.122,-4.061,7.008,770399192
0.217,0.242,-1.074,-0.458,-3.511,7.573,770403203
0.227,0.238,-1.071,-0.992,-3.191,7.878,770407214
0.239,0.227,-1.070,-1.298,-2.733,7.802,770411225
0.233,0.219,-1.069,-1.740,-2.687,7.099,770415237
0.235,0.218,-1.063,-2.382,-2.244,6.565,770419248
0.230,0.222,-1.062,-3.130,-2.260,6.000,770423260
0.229,0.221,-1.063,-3.832,-1.969,5.359,770427270
0.228,0.219,-1.061,-4.550,-1.664,4.840,770431281
0.224,0.211,-1.063,-5.313,-1.252,3.893,770435293
0.218,0.211,-1.053,-5.954,-0.321,2.885,770439304
0.214,0.225,-1.050,-6.046,0.901,1.679,770443315
0.211,0.232,-1.060,-5.893,1.542,0.794,770447326
0.206,0.241,-1.056,-6.031,2.809,-0.061,770451337
0.210,0.265,-1.059,-5.664,3.771,-0.687,770455349
0.210,0.286,-1.051,-5.130,5.130,-1.481,770459360
0.218,0.294,-1.058,-4.244,5.878,-1.954,770463371
0.223,0.303,-1.052,-3.008,6.336,-2.275,770467382
0.230,0.305,-1.057,-1.954,6.550,-2.382,770471393
0.234,0.303,-1.060,-0.992,6.779,-2.412,770475405
0.236,0.288,-1.067,-0.473,6.718,-2.168,770479426
0.231,0.282,-1.068,-0.046,6.305,-1.863,770483437
0.237,0.267,-1.068,0.260,5.878,-1.176,770487449
0.230,0.258,-1.084,-0.214,5.588,-0.473,770491460
0.233,0.243,-1.087,-0.687,4.977,0.244,770495471
0.235,0.222,-1.082,-0.977,4.214,0.916,770499483
0.233,0.213,-1.083,-1.282,4.092,1.786,770503494
0.235,0.205,-1.068,-1.802,3.053,2.092,770507505
0.228,0.205,-1.076,-2.641,3.053,2.137,770511516
0.239,0.207,-1.082,-3.053,3.145,2.382,770515528
0.243,0.219,-1.083,-3.573,2.534,2.870,770519539
0.246,0.234,-1.090,-3.527,2.366,2.962,770523550
0.270,0.246,-1.091,-3.908,1.939,2.809,770527561
0.282,0.256,-1.079,-3.924,1.725,3.023,770531572
0.290,0.258,-1.082,-4.031,1.191,3.084,770535583
0.304,0.260,-1.082,-3.939,0.870,2.901,770539593
0.298,0.266,-1.077,-4.000,0.061,2.366,770543605
0.296,0.256,-1.076,-4.290,-0.031,1.542,770547616
0.285,0.255,-1.089,-4.626,0.244,0.321,770551627
0.265,0.244,-1.082,-5.038,0.275,-0.504,770555639
0.259,0.239,-1.079,-5.313,0.931,-1.237,770559649
0.252,0.231,-1.075,-5.145,1.863,-2.214,770563660
0.245,0.242,-1.085,-4.947,2.962,-2.794,770567671
0.245,0.234,-1.067,-4.748,3.985,-3.710,770571682
0.249,0.237,-1.073,-4.519,4.962,-4.519,770575693
0.242,0.238,-1.073,-4.290,6.565,-5.740,770579714
0.230,0.234,-1.067,-3.756,7.832,-7.237,770583725
0.220,0.231,-1.067,-3.145,9.618,-8.458,770587737
0.220,0.235,-1.075,-2.733,11.481,-9.450,770591747
0.223,0.245,-1.075,-2.305,13.328,-10.214,770595758
0.230,0.246,-1.057,-2.229,15.069,-11.038,770599779
0.240,0.241,-1.071,-2.366,16.595,-11.756,770603790
0.239,0.232,-1.070,-2.382,17.802,-12.458,770607801
0.244,0.226,-1.070,-1.679,19.023,-12.214,770611812
0.259,0.220,-1.070,-2.122,19.069,-11.649,770615823
0.279,0.231,-1.077,-1.954,17.847,-12.046,770619835
0.291,0.245,-1.073,-1.527,17.298,-12.076,770623846
0.292,0.232,-1.075,-1.954,15.679,-10.977,770627857
0.304,0.231,-1.076,-1.695,13.221,-9.939,770631868
0.302,0.219,-1.062,-2.000,11.496,-10.031,770635879
0.295,0.201,-1.064,-2.458,9.924,-10.076,770639890
0.284,0.203,-1.053,-2.611,8.885,-9.298,770643901
0.273,0.192,-1.065,-3.130,8.031,-8.183,770647912
0.260,0.201,-1.064,-3.924,7.176,-6.885,770651923
0.263,0.202,-1.066,-4.489,6.427,-5.771,770655934
0.274,0.206,-1.067,-4.504,5.344,-4.992,770659954
0.284,0.218,-1.082,-4.321,4.015,-4.595,770663965
0.288,0.226,-1.076,-4.061,3.023,-4.137,770667976
0.292,0.227,-1.081,-4.229,1.985,-3.847,770671987
0.283,0.229,-1.069,-4.580,1.206,-3.115,770675998
0.289,0.227,-1.073,-4.809,0.321,-2.427,770680019
0.271,0.217,-1.067,-5.282,-0.229,-1.924,770684031
0.271,0.215,-1.069,-5.817,-0.351,-1.756,770688042
0.266,0.210,-1.069,-6.641,-1.084,-1.527,770692054
0.276,0.197,-1.070,-7.466,-1.328,-1.603,770696065
0.278,0.205,-1.078,-8.015,-1.466,-1.557,770700083
0.279,0.210,-1.071,-8.473,-2.321,-1.420,770704093
0.280,0.217,-1.065,-8.794,-2.626,-1.664,770708104
0.282,0.231,-1.065,-8.870,-3.298,-1.863,770712115
0.273,0.230,-1.054,-8.718,-4.046,-2.321,770716126
0.273,0.246,-1.052,-8.229,-4.687,-2.977,770720137
0.266,0.253,-1.054,-7.420,-4.794,-3.008,770724149
0.257,0.264,-1.073,-6.198,-5.298,-3.298,770728159
0.257,0.276,-1.062,-4.641,-5.282,-3.084,770732170
0.258,0.270,-1.075,-3.603,-5.282,-2.718,770736181
0.253,0.271,-1.077,-2.748,-4.992,-2.229,770740193
0.263,0.258,-1.062,-2.061,-4.702,-1.832,770744204
0.257,0.251,-1.073,-1.298,-4.809,-1.710,770748216
0.251,0.239,-1.065,-1.084,-4.550,-1.206,770752226
0.243,0.229,-1.072,-1.008,-4.550,-0.809,770756237
0.245,0.230,-1.077,-1.191,-4.290,-0.672,770760247
0.241,0.218,-1.083,-1.573,-4.092,-0.565,770764258
0.246,0.214,-1.090,-2.168,-3.710,-0.947,770768269
0.237,0.206,-1.079,-3.267,-3.603,-1.725,770772281
0.239,0.203,-1.088,-4.214,-3.130,-2.458,770776292
0.237,0.188,-1.088,-5.389,-2.443,-3.115,770780304
0.231,0.199,-1.089,-6.198,-1.878,-3.924,770784315
0.223,0.204,-1.087,-6.962,-1.099,-4.550,770788326
0.214,0.221,-1.079,-7.053,0.153,-4.962,770792337
0.220,0.227,-1.083,-6.748,1.084,-5.313,770796348
0.223,0.251,-1.089,-6.595,2.107,-5.145,770800368
0.229,0.262,-1.091,-6.046,2.718,-5.191,770804380
0.229,0.259,-1.099,-5.634,2.992,-4.870,770808390
0.234,0.256,-1.089,-5.038,3.374,-4.290,770812401
0.235,0.255,-1.082,-4.641,3.069,-3.863,770816412
0.246,0.247,-1.082,-4.229,3.008,-2.992,770820432
0.244,0.240,-1.085,-3.802,2.718,-2.214,770824444
0.245,0.235,-1.084,-3.634,2.000,-1.588,770828455
0.248,0.226,-1.077,-3.542,0.931,-1.069,770832466
0.251,0.220,-1.086,-3.802,-0.076,-0.656,770836477
0.246,0.207,-1.078,-4.183,-0.947,-0.092,770840491
0.241,0.202,-1.081,-4.763,-1.649,0.321,770844501
0.224,0.202,-1.070,-5.359,-2.458,0.489,770848512
0.218,0.195,-1.076,-5.618,-2.183,0.321,770852523
0.207,0.205,-1.070,-5.695,-2.214,0.122,770856534
0.198,0.213,-1.068,-5.389,-1.588,-0.168,770860547
0.196,0.226,-1.081,-5.511,-0.473,-0.092,770864558
0.198,0.231,-1.072,-5.542,0.031,-0.290,770868569
